Version,Variable Order,Class,Dataset Name,Variable Name,Variable Label,Type,CDISC CT Codelist Code(s),Codelist Submission Values,Described Value Domain(s),Value List,Role,CDISC Notes,Core
SDTMIG v3.4,1,Interventions,AG,STUDYID,Study Identifier,Char,,,,,Identifier,Unique identifier for a study.,Req
SDTMIG v3.4,2,Interventions,AG,DOMAIN,Domain Abbreviation,Char,,,,AG,Identifier,Two-character abbreviation for the domain.,Req
SDTMIG v3.4,3,Interventions,AG,USUBJID,Unique Subject Identifier,Char,,,,,Identifier,Identifier used to uniquely identify a subject across all studies for all applications or submissions involving the product.,Req
SDTMIG v3.4,4,Interventions,AG,AGSEQ,Sequence Number,Num,,,,,Identifier,Sequence number given to ensure uniqueness of subject records within a domain. May be any valid number.,Req
SDTMIG v3.4,5,Interventions,AG,AGGRPID,Group ID,Char,,,,,Identifier,Used to tie together a block of related records in a single domain for a subject.,Perm
SDTMIG v3.4,6,Interventions,AG,AGSPID,Sponsor-Defined Identifier,Char,,,,,Identifier,Sponsor-defined reference number. May be preprinted on the CRF as an explicit line identifier or defined in the sponsor's operational database. Example: Line number from the procedure or test page.,Perm
SDTMIG v3.4,7,Interventions,AG,AGLNKID,Link ID,Char,,,,,Identifier,Identifier used to link related records across domains.This may be a one-to-one or a one-to-many relationship.,Perm
SDTMIG v3.4,8,Interventions,AG,AGLNKGRP,Link Group ID,Char,,,,,Identifier,Identifier used to link related records across domains.This will usually be a many-to-one relationship.,Perm
SDTMIG v3.4,9,Interventions,AG,AGTRT,Reported Agent Name,Char,,,,,Topic,Verbatim medication name that is either preprinted or collected on a CRF.,Req
SDTMIG v3.4,10,Interventions,AG,AGMODIFY,Modified Reported Name,Char,,,,,Synonym Qualifier,"If AGTRT is modified to facilitate coding, then AGMODIFY will contain the modified text.",Perm
SDTMIG v3.4,11,Interventions,AG,AGDECOD,Standardized Agent Name,Char,,,,,Synonym Qualifier,"Standardized or dictionary-derived text description of AGTRT or AGMODIFY. Equivalent to the generic medication name in WHO Drug. The sponsor is expected to provide the dictionary name and version used to map the terms utilizing the external codelist element in the Define-XML document. If an intervention term does not have a decode value in the dictionary, then AGDECOD will be left blank.",Perm
SDTMIG v3.4,12,Interventions,AG,AGCAT,Category for Agent,Char,,,,,Grouping Qualifier,"Used to define a category of agent. Examples: ""CHALLENGE AGENT"", ""PET TRACER"".",Perm
SDTMIG v3.4,13,Interventions,AG,AGSCAT,Subcategory for Agent,Char,,,,,Grouping Qualifier,Further categorization of agent.,Perm
SDTMIG v3.4,14,Interventions,AG,AGPRESP,AG Pre-Specified,Char,C66742,,,,Variable Qualifier,"Used to indicate whether (""Y""/null) information about the use of a specific agent was solicited on the CRF.",Perm
SDTMIG v3.4,15,Interventions,AG,AGOCCUR,AG Occurrence,Char,C66742,,,,Record Qualifier,"When the use of specific agent is solicited, AGOCCUR is used to indicate whether (""Y""/""N"") use of the agent occurred. Values are null for agents not specifically solicited.",Perm
SDTMIG v3.4,16,Interventions,AG,AGSTAT,Completion Status,Char,C66789,,,,Record Qualifier,"Used to indicate that a question about a prespecified agent was not answered. Should be null or have a value of ""NOT DONE"".",Perm
SDTMIG v3.4,17,Interventions,AG,AGREASND,Reason Procedure Agent Not Collected,Char,,,,,Record Qualifier,"Describes the reason a response to a question about the occurrence of a procedure agent was not collected. Used in conjunction with AGSTAT when value is ""NOT DONE"".",Perm
SDTMIG v3.4,18,Interventions,AG,AGCLAS,Agent Class,Char,,,,,Variable Qualifier,"Drug class. May be obtained from coding. When coding to a single class, populate with class value. If using a dictionary and coding to multiple classes, follow guidance in Section 4.2.8.3, Multiple Values for a Non-result Qualifier Variable, or omit AGCLAS.",Perm
SDTMIG v3.4,19,Interventions,AG,AGCLASCD,Agent Class Code,Char,,,,,Variable Qualifier,"Class code corresponding to AGCLAS. Drug class. May be obtained from coding. When coding to a single class, populate with class code. If using a dictionary and coding to multiple classes, follow guidance in Section 4.2.8.3, Multiple Values for a Non-result Qualifier Variable, or omit AGCLASCD.",Perm
SDTMIG v3.4,20,Interventions,AG,AGDOSE,Dose per Administration,Num,,,,,Record Qualifier,Amount of AGTRT taken.,Perm
SDTMIG v3.4,21,Interventions,AG,AGDOSTXT,Dose Description,Char,,,,,Record Qualifier,"Dosing amounts or a range of dosing information collected in text form. Units may be stored in AGDOSU. Examples: ""200-400"", ""15-20"".",Perm
SDTMIG v3.4,22,Interventions,AG,AGDOSU,Dose Units,Char,C71620,,,,Variable Qualifier,"Units for AGDOSE and AGDOSTXT. Examples: ""ng"", ""mg"", ""mg/kg"".",Perm
SDTMIG v3.4,23,Interventions,AG,AGDOSFRM,Dose Form,Char,C66726,,,,Variable Qualifier,"Dose form for AGTRT. Examples: ""TABLET"", ""AEROSOL"".",Perm
SDTMIG v3.4,24,Interventions,AG,AGDOSFRQ,Dosing Frequency per Interval,Char,C71113,,,,Record Qualifier,"Usually expressed as the number of repeated administrations of AGDOSE within a specific time period. Example: ""ONCE"".",Perm
SDTMIG v3.4,25,Interventions,AG,AGROUTE,Route of Administration,Char,C66729,,,,Variable Qualifier,"Route of administration for AGTRT. Example: ""ORAL"".",Perm
SDTMIG v3.4,26,Interventions,AG,VISITNUM,Visit Number,Num,,,,,Timing,"1. Clinical encounter number. \n 2. Numeric version of VISIT, used for sorting.",Exp
SDTMIG v3.4,27,Interventions,AG,VISIT,Visit Name,Char,,,,,Timing,1. Protocol-defined description of clinical encounter. \n 2. May be used in addition to VISITNUM and/or VISITDY.,Perm
SDTMIG v3.4,28,Interventions,AG,VISITDY,Planned Study Day of Visit,Num,,,,,Timing,Planned study day of the visit based upon RFSTDTC in Demographics.,Perm
SDTMIG v3.4,29,Interventions,AG,TAETORD,Planned Order of Element within Arm,Num,,,,,Timing,Number that gives the planned order of the element within the arm for the element in which the agent administration started.,Perm
SDTMIG v3.4,30,Interventions,AG,EPOCH,Epoch,Char,C99079,,,,Timing,Epoch associated with the start date/time of the agent administration started.,Perm
SDTMIG v3.4,31,Interventions,AG,AGSTDTC,Start Date/Time of Agent,Char,,,ISO 8601 datetime or interval,,Timing,The date/time when administration of the treatment indicated by AGTRT and the dosing variables began.,Perm
SDTMIG v3.4,32,Interventions,AG,AGENDTC,End Date/Time of Agent,Char,,,ISO 8601 datetime or interval,,Timing,The date/time when administration of the treatment indicated by AGTRT and the dosing variables ended.,Perm
SDTMIG v3.4,33,Interventions,AG,AGSTDY,Study Day of Start of Agent,Num,,,,,Timing,Study day of start of agent relative to the sponsor-defined RFSTDTC.,Perm
SDTMIG v3.4,34,Interventions,AG,AGENDY,Study Day of End of Agent,Num,,,,,Timing,Study day of end of agent relative to the sponsor-defined RFSTDTC.,Perm
SDTMIG v3.4,35,Interventions,AG,AGDUR,Duration of Agent,Char,,,ISO 8601 duration,,Timing,Collected duration for an agent episode. Used only if collected on the CRF and not derived from start and end date/times.,Perm
SDTMIG v3.4,36,Interventions,AG,AGSTRF,Start Relative to Reference Period,Char,C66728,,,,Timing,"Describes the start of the agent relative to sponsor-defined reference period. The sponsor-defined reference period is a continuous period of time defined by a discrete starting point and a discrete ending point (represented by RFSTDTC and RFENDTC in Demographics). If information such as ""PRIOR"", ""ONGOING"", or ""CONTINUING"" was collected, this information may be translated into AGSTRF. \n Not all values of the codelist are allowable for this variable. See Section 4.4.7, Use of Relative Timing Variables.",Perm
SDTMIG v3.4,37,Interventions,AG,AGENRF,End Relative to Reference Period,Char,C66728,,,,Timing,"Describes the end of the agent relative to the sponsor-defined reference period. The sponsor-defined reference period is a continuous period of time defined by a discrete starting point and a discrete ending point (represented by RFSTDTC and RFENDTC in Demographics). If information such as ""PRIOR"", ""ONGOING"", or ""CONTINUING"" was collected, this information may be translated into AGENRF. \n Not all values of the codelist are allowable for this variable. See Section 4.4.7, Use of Relative Timing Variables.",Perm
SDTMIG v3.4,38,Interventions,AG,AGSTRTPT,Start Relative to Reference Time Point,Char,C66728,,,,Timing,"Identifies the start of the agent as being before or after the sponsor-defined reference time point defined by variable AGSTTPT. \n Not all values of the codelist are allowable for this variable. See Section 4.4.7, Use of Relative Timing Variables.",Perm
SDTMIG v3.4,39,Interventions,AG,AGSTTPT,Start Reference Time Point,Char,,,,,Timing,"Description or date/time in ISO 8601 character format of the reference point referred to by AGSTRTPT. Examples: ""2003-12-15"", ""VISIT 1"".",Perm
SDTMIG v3.4,40,Interventions,AG,AGENRTPT,End Relative to Reference Time Point,Char,C66728,,,,Timing,"Identifies the end of the agent as being before or after the reference time point defined by variable AGENTPT. Identifies the end of the agent as being before or after the sponsor-defined reference time point defined by variable AGENTPT. \n Not all values of the codelist are allowable for this variable. See Section 4.4.7, Use of Relative Timing Variables.",Perm
SDTMIG v3.4,41,Interventions,AG,AGENTPT,End Reference Time Point,Char,,,,,Timing,"Description or date/time in ISO 8601 character format of the reference point referred to by AGENRTPT. Examples: ""2003-12-25"", ""VISIT 2"".",Perm
SDTMIG v3.4,1,Interventions,CM,STUDYID,Study Identifier,Char,,,,,Identifier,Unique identifier for a study.,Req
SDTMIG v3.4,2,Interventions,CM,DOMAIN,Domain Abbreviation,Char,,,,CM,Identifier,Two-character abbreviation for the domain.,Req
SDTMIG v3.4,3,Interventions,CM,USUBJID,Unique Subject Identifier,Char,,,,,Identifier,Identifier used to uniquely identify a subject across all studies for all applications or submissions involving the product.,Req
SDTMIG v3.4,4,Interventions,CM,CMSEQ,Sequence Number,Num,,,,,Identifier,Sequence number to ensure uniqueness of subject records within a domain. May be any valid number.,Req
SDTMIG v3.4,5,Interventions,CM,CMGRPID,Group ID,Char,,,,,Identifier,Used to tie together a block of related records in a single domain for a subject.,Perm
SDTMIG v3.4,6,Interventions,CM,CMSPID,Sponsor-Defined Identifier,Char,,,,,Identifier,Sponsor-defined reference number. Example: a number preprinted on the CRF as an explicit line identifier or record identifier defined in the sponsor's operational database. Example: line number on a concomitant medication page.,Perm
SDTMIG v3.4,7,Interventions,CM,CMTRT,"Reported Name of Drug, Med, or Therapy",Char,,,,,Topic,Verbatim medication name that is either preprinted or collected on a CRF.,Req
SDTMIG v3.4,8,Interventions,CM,CMMODIFY,Modified Reported Name,Char,,,,,Synonym Qualifier,"If CMTRT is modified to facilitate coding, then CMMODIFY will contain the modified text.",Perm
SDTMIG v3.4,9,Interventions,CM,CMDECOD,Standardized Medication Name,Char,,,,,Synonym Qualifier,"Standardized or dictionary-derived text description of CMTRT or CMMODIFY. Equivalent to the generic drug name in WHO Drug. The sponsor is expected to provide the dictionary name and version used to map the terms utilizing the external codelist element in the Define-XML document. If an intervention term does not have a decode value in the dictionary, then CMDECOD will be left blank.",Perm
SDTMIG v3.4,10,Interventions,CM,CMCAT,Category for Medication,Char,,,,,Grouping Qualifier,"Used to define a category of medications/treatment. Examples: ""PRIOR"", ""CONCOMITANT"", ""ANTI-CANCER MEDICATION"", ""GENERAL CONMED"".",Perm
SDTMIG v3.4,11,Interventions,CM,CMSCAT,Subcategory for Medication,Char,,,,,Grouping Qualifier,"A further categorization of medications/treatment. Examples: ""CHEMOTHERAPY"", ""HORMONAL THERAPY"", ""ALTERNATIVE THERAPY"".",Perm
SDTMIG v3.4,12,Interventions,CM,CMPRESP,CM Pre-specified,Char,C66742,,,,Variable Qualifier,"Used to indicate whether (""Y""/null) information about the use of a specific medication was solicited on the CRF.",Perm
SDTMIG v3.4,13,Interventions,CM,CMOCCUR,CM Occurrence,Char,C66742,,,,Record Qualifier,"When the use of a specific medication is solicited. CMOCCUR is used to indicate whether (""Y""/""N"") use of the medication occurred. Values are null for medications not specifically solicited.",Perm
SDTMIG v3.4,14,Interventions,CM,CMSTAT,Completion Status,Char,C66789,,,,Record Qualifier,"Used to indicate that a question about the occurrence of a prespecified intervention was not answered. Should be null or have a value of ""NOT DONE"".",Perm
SDTMIG v3.4,15,Interventions,CM,CMREASND,Reason Medication Not Collected,Char,,,,,Record Qualifier,"Reason not done. Used in conjunction with CMSTAT when value is ""NOT DONE"".",Perm
SDTMIG v3.4,16,Interventions,CM,CMINDC,Indication,Char,,,,,Record Qualifier,"Denotes why a medication was taken or administered. Examples: ""NAUSEA"", ""HYPERTENSION"".",Perm
SDTMIG v3.4,17,Interventions,CM,CMCLAS,Medication Class,Char,,,,,Variable Qualifier,"Drug class. May be obtained from coding. When coding to a single class, populate with class value. If using a dictionary and coding to multiple classes, then follow Section 4.2.8.3, Multiple Values for a Non-result Qualifier Variable, or omit CMCLAS.",Perm
SDTMIG v3.4,18,Interventions,CM,CMCLASCD,Medication Class Code,Char,,,,,Variable Qualifier,"Class code corresponding to CMCLAS. Drug class. May be obtained from coding. When coding to a single class, populate with class code. If using a dictionary and coding to multiple classes, then follow Section 4.2.8.3, Multiple Values for a Non-result Qualifier Variable, or omit CMCLASCD.",Perm
SDTMIG v3.4,19,Interventions,CM,CMDOSE,Dose per Administration,Num,,,,,Record Qualifier,Amount of CMTRT given. Not populated when CMDOSTXT is populated.,Perm
SDTMIG v3.4,20,Interventions,CM,CMDOSTXT,Dose Description,Char,,,,,Record Qualifier,"Dosing amounts or a range of dosing information collected in text form. Units may be stored in CMDOSU. Examples: ""200-400"", ""15-20"". Not populated when CMDOSE is populated.",Perm
SDTMIG v3.4,21,Interventions,CM,CMDOSU,Dose Units,Char,C71620,,,,Variable Qualifier,"Units for CMDOSE, CMDOSTOT, or CMDOSTXT. Examples: ""ng"", ""mg"", ""mg/kg"".",Perm
SDTMIG v3.4,22,Interventions,CM,CMDOSFRM,Dose Form,Char,C66726,,,,Variable Qualifier,"Dose form for CMTRT. Examples: ""TABLET"", ""LOTION"".",Perm
SDTMIG v3.4,23,Interventions,CM,CMDOSFRQ,Dosing Frequency per Interval,Char,C71113,,,,Record Qualifier,"Usually expressed as the number of repeated administrations of CMDOSE within a specific time period. Examples: ""BID"" (twice daily), ""Q12H"" (every 12 hours).",Perm
SDTMIG v3.4,24,Interventions,CM,CMDOSTOT,Total Daily Dose,Num,,,,,Record Qualifier,Total daily dose of CMTRT using the units in CMDOSU. Used when dosing is collected as total daily dose. Total dose over a period other than day could be recorded in a separate supplemental qualifier variable.,Perm
SDTMIG v3.4,25,Interventions,CM,CMDOSRGM,Intended Dose Regimen,Char,,,,,Record Qualifier,"Text description of the (intended) schedule or regimen for the Intervention. Example: ""TWO WEEKS ON, TWO WEEKS OFF"".",Perm
SDTMIG v3.4,26,Interventions,CM,CMROUTE,Route of Administration,Char,C66729,,,,Variable Qualifier,"Route of administration for the intervention. Examples: ""ORAL"", ""INTRAVENOUS"".",Perm
SDTMIG v3.4,27,Interventions,CM,CMADJ,Reason for Dose Adjustment,Char,,,,,Record Qualifier,"Describes reason or explanation of why a dose is adjusted. Examples: ""ADVERSE EVENT"", ""INSUFFICIENT RESPONSE"", ""NON-MEDICAL REASON"".",Perm
SDTMIG v3.4,28,Interventions,CM,CMRSDISC,Reason the Intervention Was Discontinued,Char,,,,,Record Qualifier,"When dosing of a treatment is recorded over multiple successive records, this variable is applicable only for the (chronologically) last record for the treatment.",Perm
SDTMIG v3.4,29,Interventions,CM,TAETORD,Planned Order of Element within Arm,Num,,,,,Timing,Number that gives the planned order of the element within the arm for the element in which the medication administration started. Null for medications that started before study participation.,Perm
SDTMIG v3.4,30,Interventions,CM,EPOCH,Epoch,Char,C99079,,,,Timing,Epoch associated with the start date/time of the medication administration. Null for medications that started before study participation.,Perm
SDTMIG v3.4,31,Interventions,CM,CMSTDTC,Start Date/Time of Medication,Char,,,ISO 8601 datetime or interval,,Timing,Start date/time of the medication administration represented in ISO 8601 character format.,Perm
SDTMIG v3.4,32,Interventions,CM,CMENDTC,End Date/Time of Medication,Char,,,ISO 8601 datetime or interval,,Timing,End date/time of the medication administration represented in ISO 8601 character format.,Perm
SDTMIG v3.4,33,Interventions,CM,CMSTDY,Study Day of Start of Medication,Num,,,,,Timing,Study day of start of medication relative to the sponsor-defined RFSTDTC.,Perm
SDTMIG v3.4,34,Interventions,CM,CMENDY,Study Day of End of Medication,Num,,,,,Timing,Study day of end of medication relative to the sponsor-defined RFSTDTC.,Perm
SDTMIG v3.4,35,Interventions,CM,CMDUR,Duration,Char,,,ISO 8601 duration,,Timing,Collected duration for a treatment episode. Used only if collected on the CRF and not derived from start and end date/times.,Perm
SDTMIG v3.4,36,Interventions,CM,CMSTRF,Start Relative to Reference Period,Char,C66728,,,,Timing,"Describes the start of the medication relative to sponsor-defined reference period. The sponsor-defined reference period is a continuous period of time defined by a discrete starting point and a discrete ending point (represented by RFSTDTC and RFENDTC in Demographics). If information such as ""PRIOR"" was collected, this information may be translated into CMSTRF. \n Not all values of the codelist are allowable for this variable. See Section 4.4.7, Use of Relative Timing Variables.",Perm
SDTMIG v3.4,37,Interventions,CM,CMENRF,End Relative to Reference Period,Char,C66728,,,,Timing,"Describes the end of the medication relative to the sponsor-defined reference period. The sponsor-defined reference period is a continuous period of time defined by a discrete starting point and a discrete ending point (represented by RFSTDTC and RFENDTC in Demographics). If information such as ""PRIOR"", ""ONGOING, or ""CONTINUING"" was collected, this information may be translated into CMENRF. \n Not all values of the codelist are allowable for this variable. See Section 4.4.7, Use of Relative Timing Variables.",Perm
SDTMIG v3.4,38,Interventions,CM,CMSTRTPT,Start Relative to Reference Time Point,Char,C66728,,,,Timing,"Identifies the start of the medication as being before or after the sponsor-defined reference time point defined by variable CMSTTPT. \n Not all values of the codelist are allowable for this variable. See Section 4.4.7, Use of Relative Timing Variables.",Perm
SDTMIG v3.4,39,Interventions,CM,CMSTTPT,Start Reference Time Point,Char,,,,,Timing,"Description or date/time in ISO 8601 character format of the sponsor-defined reference point referred to by CMSTRTPT. Examples: ""2003-12-15"", ""VISIT 1"".",Perm
SDTMIG v3.4,40,Interventions,CM,CMENRTPT,End Relative to Reference Time Point,Char,C66728,,,,Timing,"Identifies the end of the medication as being before or after the sponsor-defined reference time point defined by variable CMENTPT. \n Not all values of the codelist are allowable for this variable. See Section 4.4.7, Use of Relative Timing Variables.",Perm
SDTMIG v3.4,41,Interventions,CM,CMENTPT,End Reference Time Point,Char,,,,,Timing,"Description or date/time in ISO 8601 character format of the sponsor-defined reference point referred to by CMENRTPT. Examples: ""2003-12-25"", ""VISIT 2"".",Perm
SDTMIG v3.4,1,Interventions,EC,STUDYID,Study Identifier,Char,,,,,Identifier,Unique identifier for a study.,Req
SDTMIG v3.4,2,Interventions,EC,DOMAIN,Domain Abbreviation,Char,,,,EC,Identifier,Two-character abbreviation for the domain.,Req
SDTMIG v3.4,3,Interventions,EC,USUBJID,Unique Subject Identifier,Char,,,,,Identifier,Identifier used to uniquely identify a subject across all studies for all applications or submissions involving the product.,Req
SDTMIG v3.4,4,Interventions,EC,ECSEQ,Sequence Number,Num,,,,,Identifier,Sequence number given to ensure uniqueness of subject records within a domain. May be any valid number.,Req
SDTMIG v3.4,5,Interventions,EC,ECGRPID,Group ID,Char,,,,,Identifier,Used to tie together a block of related records in a single domain for a subject.,Perm
SDTMIG v3.4,6,Interventions,EC,ECREFID,Reference ID,Char,,,,,Identifier,"Internal or external identifier (e.g., kit number, bottle label, vial identifier).",Perm
SDTMIG v3.4,7,Interventions,EC,ECSPID,Sponsor-Defined Identifier,Char,,,,,Identifier,Sponsor-defined reference number. May be preprinted on the CRF as an explicit line identifier or defined in the sponsor's operational database. Example: Line number on a CRF page.,Perm
SDTMIG v3.4,8,Interventions,EC,ECLNKID,Link ID,Char,,,,,Identifier,Identifier used to link related records across domains.,Perm
SDTMIG v3.4,9,Interventions,EC,ECLNKGRP,Link Group ID,Char,,,,,Identifier,"Identifier used to link related, grouped records across domains.",Perm
SDTMIG v3.4,10,Interventions,EC,ECTRT,Name of Treatment,Char,,,,,Topic,Name of the intervention treatment known to the subject and/or administrator.,Req
SDTMIG v3.4,11,Interventions,EC,ECMOOD,Mood,Char,C125923,,,,Record Qualifier,"Mode or condition of the record specifying whether the intervention (activity) is intended to happen or has happened. Values align with BRIDG pillars (e.g., scheduled context, performed context) and HL7 activity moods (e.g., intent, event). Examples: ""SCHEDULED"", ""PERFORMED"".",Perm
SDTMIG v3.4,12,Interventions,EC,ECCAT,Category of Treatment,Char,,,,,Grouping Qualifier,Used to define a category of related ECTRT values.,Perm
SDTMIG v3.4,13,Interventions,EC,ECSCAT,Subcategory of Treatment,Char,,,,,Grouping Qualifier,A further categorization of ECCAT values.,Perm
SDTMIG v3.4,14,Interventions,EC,ECPRESP,Pre-Specified,Char,C66742,,,,Variable Qualifier,"Used when a specific intervention is prespecified. Values should be ""Y"" or null.",Perm
SDTMIG v3.4,15,Interventions,EC,ECOCCUR,Occurrence,Char,C66742,,,,Record Qualifier,"Used to indicate whether a treatment occurred when information about the occurrence is solicited. ECOCCUR = ""N"" when a treatment was not taken, not given, or missed.",Perm
SDTMIG v3.4,16,Interventions,EC,ECREASOC,Reason for Occur Value,Char,,,,,Record Qualifier,"The reason for the value in --OCCUR. If --OCCUR = ""N"", this is the reason the exposure did not occur.",Perm
SDTMIG v3.4,17,Interventions,EC,ECDOSE,Dose,Num,,,,,Record Qualifier,Amount of ECTRT when numeric. Not populated when ECDOSTXT is populated.,Exp
SDTMIG v3.4,18,Interventions,EC,ECDOSTXT,Dose Description,Char,,,,,Record Qualifier,"Amount of ECTRT when non-numeric. Dosing amounts or a range of dosing information collected in text form. Example: ""200-400"". Not populated when ECDOSE is populated.",Perm
SDTMIG v3.4,19,Interventions,EC,ECDOSU,Dose Units,Char,C71620,,,,Variable Qualifier,"Units for ECDOSE, ECDOSTOT, or ECDOSTXT.",Exp
SDTMIG v3.4,20,Interventions,EC,ECDOSFRM,Dose Form,Char,C66726,,,,Variable Qualifier,"Dose form for ECTRT. Examples: ""TABLET"", ""LOTION"".",Exp
SDTMIG v3.4,21,Interventions,EC,ECDOSFRQ,Dosing Frequency per Interval,Char,C71113,,,,Record Qualifier,"Usually expressed as the number of repeated administrations of ECDOSE within a specific time period. Examples: ""Q2H"", ""QD"", ""BID"".",Perm
SDTMIG v3.4,22,Interventions,EC,ECDOSTOT,Total Daily Dose,Num,,,,,Record Qualifier,Total daily dose of ECTRT using the units in ECDOSU. Used when dosing is collected as total daily dose.,Perm
SDTMIG v3.4,23,Interventions,EC,ECDOSRGM,Intended Dose Regimen,Char,,,,,Record Qualifier,"Text description of the intended schedule or regimen for the Intervention. Example: ""TWO WEEKS ON"", ""TWO WEEKS OFF"".",Perm
SDTMIG v3.4,24,Interventions,EC,ECROUTE,Route of Administration,Char,C66729,,,,Variable Qualifier,"Route of administration for the intervention. Examples: ""ORAL"", ""INTRAVENOUS"".",Perm
SDTMIG v3.4,25,Interventions,EC,ECLOT,Lot Number,Char,,,,,Record Qualifier,Lot number of the ECTRT product.,Perm
SDTMIG v3.4,26,Interventions,EC,ECLOC,Location of Dose Administration,Char,C74456,,,,Record Qualifier,"Specifies location of administration. Example: ""ARM"", ""LIP"".",Perm
SDTMIG v3.4,27,Interventions,EC,ECLAT,Laterality,Char,C99073,,,,Variable Qualifier,"Qualifier for anatomical location further detailing laterality of the intervention administration. Examples: ""LEFT"", ""RIGHT"".",Perm
SDTMIG v3.4,28,Interventions,EC,ECDIR,Directionality,Char,C99074,,,,Variable Qualifier,"Qualifier for anatomical location further detailing directionality. Examples: ""ANTERIOR"", ""LOWER"", ""PROXIMAL"", ""UPPER"".",Perm
SDTMIG v3.4,29,Interventions,EC,ECPORTOT,Portion or Totality,Char,C99075,,,,Variable Qualifier,"Qualifier for anatomical location further detailing distribution (i.e., arrangement of, apportioning of). Examples: ""ENTIRE"", ""SINGLE"", ""SEGMENT"".",Perm
SDTMIG v3.4,30,Interventions,EC,ECFAST,Fasting Status,Char,C66742,,,,Record Qualifier,"Indicator used to identify fasting status. Examples: ""Y"", ""N"".",Perm
SDTMIG v3.4,31,Interventions,EC,ECPSTRG,Pharmaceutical Strength,Num,,,,,Record Qualifier,"Amount of an active ingredient expressed quantitatively per dosage unit, per unit of volume, or per unit of weight, according to the pharmaceutical dose form.",Perm
SDTMIG v3.4,32,Interventions,EC,ECPSTRGU,Pharmaceutical Strength Units,Char,C71620,,,,Variable Qualifier,"Unit for ECPSTRG. Examples: ""mg/TABLET"", ""mg/mL"".",Perm
SDTMIG v3.4,33,Interventions,EC,ECADJ,Reason for Dose Adjustment,Char,,,,,Record Qualifier,Describes reason or explanation of why a dose is adjusted.,Perm
SDTMIG v3.4,34,Interventions,EC,TAETORD,Planned Order of Element within Arm,Num,,,,,Timing,Number that gives the planned order of the element within the arm.,Perm
SDTMIG v3.4,35,Interventions,EC,EPOCH,Epoch,Char,C99079,,,,Timing,"Trial epoch of the exposure as collected record. Examples: ""RUN-IN"", ""TREATMENT"".",Perm
SDTMIG v3.4,36,Interventions,EC,ECSTDTC,Start Date/Time of Treatment,Char,,,ISO 8601 datetime or interval,,Timing,The date/time when administration of the treatment indicated by ECTRT and ECDOSE began.,Exp
SDTMIG v3.4,37,Interventions,EC,ECENDTC,End Date/Time of Treatment,Char,,,ISO 8601 datetime or interval,,Timing,"The date/time when administration of the treatment indicated by ECTRT and ECDOSE ended. For administrations considered given at a point in time (e.g., oral tablet, pre-filled syringe injection), where only an administration date/time is collected, ECSTDTC should be copied to ECENDTC as the standard representation.",Exp
SDTMIG v3.4,38,Interventions,EC,ECSTDY,Study Day of Start of Treatment,Num,,,,,Timing,Study day of ECSTDTC relative to the sponsor-defined DM.RFSTDTC.,Perm
SDTMIG v3.4,39,Interventions,EC,ECENDY,Study Day of End of Treatment,Num,,,,,Timing,Study day of ECENDTC relative to the sponsor-defined DM.RFSTDTC.,Perm
SDTMIG v3.4,40,Interventions,EC,ECDUR,Duration of Treatment,Char,,,ISO 8601 duration,,Timing,Collected duration of administration. Used only if collected on the CRF and not derived from start and end date/times.,Perm
SDTMIG v3.4,41,Interventions,EC,ECTPT,Planned Time Point Name,Char,,,,,Timing,"Text description of time when administration should occur. This may be represented as an elapsed time relative to a fixed reference point, such as time of last dose. See ECTPTNUM and ECTPTREF.",Perm
SDTMIG v3.4,42,Interventions,EC,ECTPTNUM,Planned Time Point Number,Num,,,,,Timing,Numerical version of ECTPT to aid in sorting.,Perm
SDTMIG v3.4,43,Interventions,EC,ECELTM,Planned Elapsed Time from Time Point Ref,Char,,,ISO 8601 duration,,Timing,Planned elapsed time relative to the planned fixed reference (ECTPTREF). This variable is useful where there are repetitive measures. Not a clock time.,Perm
SDTMIG v3.4,44,Interventions,EC,ECTPTREF,Time Point Reference,Char,,,,,Timing,"Name of the fixed reference point referred to by ECELTM, ECTPTNUM, and ECTPT. Examples: ""PREVIOUS DOSE"", ""PREVIOUS MEAL"".",Perm
SDTMIG v3.4,45,Interventions,EC,ECRFTDTC,Date/Time of Reference Time Point,Char,,,ISO 8601 datetime or interval,,Timing,Date/time for a fixed reference time point defined by ECTPTREF.,Perm
SDTMIG v3.4,1,Interventions,EX,STUDYID,Study Identifier,Char,,,,,Identifier,Unique identifier for a study.,Req
SDTMIG v3.4,2,Interventions,EX,DOMAIN,Domain Abbreviation,Char,,,,EX,Identifier,Two-character abbreviation for the domain.,Req
SDTMIG v3.4,3,Interventions,EX,USUBJID,Unique Subject Identifier,Char,,,,,Identifier,Identifier used to uniquely identify a subject across all studies for all applications or submissions involving the product.,Req
SDTMIG v3.4,4,Interventions,EX,EXSEQ,Sequence Number,Num,,,,,Identifier,Sequence number given to ensure uniqueness of subject records within a domain. May be any valid number.,Req
SDTMIG v3.4,5,Interventions,EX,EXGRPID,Group ID,Char,,,,,Identifier,Used to tie together a block of related records in a single domain for a subject.,Perm
SDTMIG v3.4,6,Interventions,EX,EXREFID,Reference ID,Char,,,,,Identifier,"Internal or external identifier (e.g., kit number, bottle label, vial identifier).",Perm
SDTMIG v3.4,7,Interventions,EX,EXSPID,Sponsor-Defined Identifier,Char,,,,,Identifier,Sponsor-defined reference number. May be preprinted on the CRF as an explicit line identifier or defined in the sponsor's operational database. Example: Line number on a CRF page.,Perm
SDTMIG v3.4,8,Interventions,EX,EXLNKID,Link ID,Char,,,,,Identifier,Identifier used to link related records across domains.,Perm
SDTMIG v3.4,9,Interventions,EX,EXLNKGRP,Link Group ID,Char,,,,,Identifier,"Identifier used to link related, grouped records across domains.",Perm
SDTMIG v3.4,10,Interventions,EX,EXTRT,Name of Treatment,Char,,,,,Topic,Name of the protocol-specified study treatment given during the dosing period for the observation.,Req
SDTMIG v3.4,11,Interventions,EX,EXCAT,Category of Treatment,Char,,,,,Grouping Qualifier,Used to define a category of EXTRT values.,Perm
SDTMIG v3.4,12,Interventions,EX,EXSCAT,Subcategory of Treatment,Char,,,,,Grouping Qualifier,A further categorization of EXCAT values.,Perm
SDTMIG v3.4,13,Interventions,EX,EXDOSE,Dose,Num,,,,,Record Qualifier,Amount of EXTRT when numeric. Not populated when EXDOSTXT is populated.,Exp
SDTMIG v3.4,14,Interventions,EX,EXDOSTXT,Dose Description,Char,,,,,Record Qualifier,"Amount of EXTRT when non-numeric. Dosing amounts or a range of dosing information collected in text form. Example: ""200-400"". Not populated when EXDOSE is populated.",Perm
SDTMIG v3.4,15,Interventions,EX,EXDOSU,Dose Units,Char,C71620,,,,Variable Qualifier,"Units for EXDOSE, EXDOSTOT, or EXDOSTXT representing protocol-specified values. Examples: ""ng"", ""mg"", ""mg/kg"", ""mg/m2"".",Exp
SDTMIG v3.4,16,Interventions,EX,EXDOSFRM,Dose Form,Char,C66726,,,,Variable Qualifier,"Dose form for EXTRT. Examples: ""TABLET"", ""LOTION"".",Exp
SDTMIG v3.4,17,Interventions,EX,EXDOSFRQ,Dosing Frequency per Interval,Char,C71113,,,,Record Qualifier,"Usually expressed as the number of repeated administrations of EXDOSE within a specific time period. Examples: ""Q2H"", ""QD"", ""BID"".",Perm
SDTMIG v3.4,18,Interventions,EX,EXDOSRGM,Intended Dose Regimen,Char,,,,,Record Qualifier,"Text description of the intended schedule or regimen for the Intervention. Example: ""TWO WEEKS ON, TWO WEEKS OFF"".",Perm
SDTMIG v3.4,19,Interventions,EX,EXROUTE,Route of Administration,Char,C66729,,,,Variable Qualifier,"Route of administration for the intervention. Examples: ""ORAL"", ""INTRAVENOUS"".",Perm
SDTMIG v3.4,20,Interventions,EX,EXLOT,Lot Number,Char,,,,,Record Qualifier,Lot number of the intervention product.,Perm
SDTMIG v3.4,21,Interventions,EX,EXLOC,Location of Dose Administration,Char,C74456,,,,Record Qualifier,"Specifies location of administration. Examples: ""ARM"", ""LIP"".",Perm
SDTMIG v3.4,22,Interventions,EX,EXLAT,Laterality,Char,C99073,,,,Variable Qualifier,"Qualifier for anatomical location further detailing laterality of the intervention administration. Examples: ""LEFT"", ""RIGHT"".",Perm
SDTMIG v3.4,23,Interventions,EX,EXDIR,Directionality,Char,C99074,,,,Variable Qualifier,"Qualifier for anatomical location further detailing directionality. Examples: ""ANTERIOR"", ""LOWER"", ""PROXIMAL"", ""UPPER"".",Perm
SDTMIG v3.4,24,Interventions,EX,EXFAST,Fasting Status,Char,C66742,,,,Record Qualifier,"Indicator used to identify fasting status. Examples: ""Y"", ""N"".",Perm
SDTMIG v3.4,25,Interventions,EX,EXADJ,Reason for Dose Adjustment,Char,,,,,Record Qualifier,Describes reason or explanation of why a dose is adjusted.,Perm
SDTMIG v3.4,26,Interventions,EX,TAETORD,Planned Order of Element within Arm,Num,,,,,Timing,Number that gives the planned order of the element within the arm.,Perm
SDTMIG v3.4,27,Interventions,EX,EPOCH,Epoch,Char,C99079,,,,Timing,"Trial epoch of the exposure record. Examples: ""RUN-IN"", ""TREATMENT"".",Perm
SDTMIG v3.4,28,Interventions,EX,EXSTDTC,Start Date/Time of Treatment,Char,,,ISO 8601 datetime or interval,,Timing,The date/time when administration of the treatment indicated by EXTRT and EXDOSE began.,Exp
SDTMIG v3.4,29,Interventions,EX,EXENDTC,End Date/Time of Treatment,Char,,,ISO 8601 datetime or interval,,Timing,"The date/time when administration of the treatment indicated by EXTRT and EXDOSE ended. For administrations considered given at a point in time (e.g., oral tablet, pre-filled syringe injection), where only an administration date/time is collected, EXSTDTC should be copied to EXENDTC as the standard representation.",Exp
SDTMIG v3.4,30,Interventions,EX,EXSTDY,Study Day of Start of Treatment,Num,,,,,Timing,Study day of EXSTDTC relative to DM.RFSTDTC.,Perm
SDTMIG v3.4,31,Interventions,EX,EXENDY,Study Day of End of Treatment,Num,,,,,Timing,Study day of EXENDTC relative to DM.RFSTDTC.,Perm
SDTMIG v3.4,32,Interventions,EX,EXDUR,Duration of Treatment,Char,,,ISO 8601 duration,,Timing,Collected duration of administration. Used only if collected on the CRF and not derived from start and end date/times.,Perm
SDTMIG v3.4,33,Interventions,EX,EXTPT,Planned Time Point Name,Char,,,,,Timing,"Text description of time when administration should occur. This may be represented as an elapsed time relative to a fixed reference point, such as time of last dose. See EXTPTNUM and EXTPTREF.",Perm
SDTMIG v3.4,34,Interventions,EX,EXTPTNUM,Planned Time Point Number,Num,,,,,Timing,Numerical version of EXTPT to aid in sorting.,Perm
SDTMIG v3.4,35,Interventions,EX,EXELTM,Planned Elapsed Time from Time Point Ref,Char,,,ISO 8601 duration,,Timing,Planned elapsed time relative to the planned fixed reference (EXTPTREF). This variable is useful where there are repetitive measures. Not a clock time.,Perm
SDTMIG v3.4,36,Interventions,EX,EXTPTREF,Time Point Reference,Char,,,,,Timing,"Name of the fixed reference point referred to by EXELTM, EXTPTNUM, and EXTPT. Examples: PREVIOUS DOSE, PREVIOUS MEAL.",Perm
SDTMIG v3.4,37,Interventions,EX,EXRFTDTC,Date/Time of Reference Time Point,Char,,,ISO 8601 datetime or interval,,Timing,Date/time for a fixed reference time point defined by EXTPTREF.,Perm
SDTMIG v3.4,1,Interventions,ML,STUDYID,Study Identifier,Char,,,,,Identifier,Unique identifier for a study.,Req
SDTMIG v3.4,2,Interventions,ML,DOMAIN,Domain Abbreviation,Char,,,,ML,Identifier,Two-character abbreviation for the domain.,Req
SDTMIG v3.4,3,Interventions,ML,USUBJID,Unique Subject Identifier,Char,,,,,Identifier,Identifier used to uniquely identify a subject across all studies for all applications or submissions involving the product.,Req
SDTMIG v3.4,4,Interventions,ML,MLSEQ,Sequence Number,Num,,,,,Identifier,Sequence number given to ensure uniqueness of subject records within a domain. May be any valid number.,Req
SDTMIG v3.4,5,Interventions,ML,MLGRPID,Group ID,Char,,,,,Identifier,Used to tie together a block of related records in a single domain for a subject.,Perm
SDTMIG v3.4,6,Interventions,ML,MLSPID,Sponsor-Defined Identifier,Char,,,,,Identifier,"Sponsor-defined reference number. Examples: a number preprinted on the CRF as an explicit line identifier, record identifier defined in the sponsor's operational database.",Perm
SDTMIG v3.4,7,Interventions,ML,MLTRT,Name of Meal,Char,,,,,Topic,Verbatim food product name that is either preprinted or collected on a CRF.,Req
SDTMIG v3.4,8,Interventions,ML,MLCAT,Category for Meal,Char,,,,,Grouping Qualifier,Used to define a category of MLTRT values.,Perm
SDTMIG v3.4,9,Interventions,ML,MLSCAT,Subcategory for Meal,Char,,,,,Grouping Qualifier,Used to define a further categorization of MLCAT values.,Perm
SDTMIG v3.4,10,Interventions,ML,MLPRESP,ML Pre-specified,Char,C66742,,,,Variable Qualifier,"Used when a specific meal is prespecified on a CRF. Values should be ""Y"" or null.",Perm
SDTMIG v3.4,11,Interventions,ML,MLOCCUR,ML Occurrence,Char,C66742,,,,Record Qualifier,Used to record whether a prespecified meal occurred when information about the occurrence of a specific meal is solicited.,Perm
SDTMIG v3.4,12,Interventions,ML,MLSTAT,Completion Status,Char,C66789,,,,Record Qualifier,"Used to indicate when a question about the occurrence of a prespecified meal was not answered. Should be null or have a value of ""NOT DONE"".",Perm
SDTMIG v3.4,13,Interventions,ML,MLREASND,Reason Meal Not Collected,Char,,,,,Record Qualifier,"Describes the reason a response to a question about the occurrence of a meal was not collected. Used in conjunction with MLSTAT when value is ""NOT DONE"".",Perm
SDTMIG v3.4,14,Interventions,ML,MLDOSE,Dose,Num,,,,,Record Qualifier,Amount of MLTRT consumed. Not populated when MLDOSTXT is populated.,Perm
SDTMIG v3.4,15,Interventions,ML,MLDOSTXT,Dose Description,Char,,,,,Record Qualifier,"Amount description of MLTRT consumed, collected in text form. Not populated when MLDOSE is populated. Examples: ""<1 per day"", ""200-400"".",Perm
SDTMIG v3.4,16,Interventions,ML,MLDOSU,Dose Units,Char,C71620,,,,Variable Qualifier,"Units for MLDOSE, MLDOSTOT, or MLDOSTXT.",Perm
SDTMIG v3.4,17,Interventions,ML,MLDOSFRM,Dose Form,Char,C66726,,,,Variable Qualifier,"Dosage form for MLTRT. Example: ""BAR, CHEWABLE"".",Perm
SDTMIG v3.4,18,Interventions,ML,VISITNUM,Visit Number,Num,,,,,Timing,"Clinical encounter number. Numeric version of VISIT, used for sorting.",Perm
SDTMIG v3.4,19,Interventions,ML,VISIT,Visit Name,Char,,,,,Timing,Protocol-defined description of a clinical encounter.,Perm
SDTMIG v3.4,20,Interventions,ML,VISITDY,Planned Study Day of Visit,Num,,,,,Timing,Planned study day of VISIT. Should be an integer.,Perm
SDTMIG v3.4,21,Interventions,ML,TAETORD,Planned Order of Element within Arm,Num,,,,,Timing,Number that gives the planned order of the element within the arm for the element in which the meal started.,Perm
SDTMIG v3.4,22,Interventions,ML,EPOCH,Epoch,Char,C99079,,,,Timing,Epoch associated with the start date/time of the meal.,Perm
SDTMIG v3.4,23,Interventions,ML,MLDTC,Date/Time of Collection,Char,,,ISO 8601 datetime or interval,,Timing,Collection date and time of the meal represented in ISO 8601 character format.,Perm
SDTMIG v3.4,24,Interventions,ML,MLSTDTC,Start Date/Time of Meal,Char,,,ISO 8601 datetime or interval,,Timing,Start date/time of the meal represented in ISO 8601 character format.,Perm
SDTMIG v3.4,25,Interventions,ML,MLENDTC,End Date/Time of Meal,Char,,,ISO 8601 datetime or interval,,Timing,End date/time of the meal represented in ISO 8601 character format.,Perm
SDTMIG v3.4,26,Interventions,ML,MLDY,Study Day of Visit/Collection/Exam,Num,,,,,Timing,Actual study day of the visit/collection expressed in integer days relative to the sponsor-defined RFSTDTC in Demographics.,Perm
SDTMIG v3.4,27,Interventions,ML,MLSTDY,Study Day of Start of Meal,Num,,,,,Timing,Actual study day of start of the meal expressed in integer days relative to sponsor-defined RFSTDTC in Demographics.,Perm
SDTMIG v3.4,28,Interventions,ML,MLENDY,Study Day of End of Meal,Num,,,,,Timing,Actual study day of end of the meal expressed in integer days relative to the sponsor-defined RFSTDTC in Demographics.,Perm
SDTMIG v3.4,29,Interventions,ML,MLDUR,Duration of Meal,Char,,,ISO 8601 duration,,Timing,Collected duration of the meal represented in ISO 8601 character format. Used only if collected on the CRF and not derived.,Perm
SDTMIG v3.4,30,Interventions,ML,MLTPT,Planned Time Point Name,Char,,,,,Timing,Text description of time when a measurement or observation should be taken as defined in the protocol. This may be represented as an elapsed time relative to a fixed reference point. See MLTPTNUM and MLTPTREF.,Perm
SDTMIG v3.4,31,Interventions,ML,MLTPTNUM,Planned Time Point Number,Num,,,,,Timing,Numeric version of planned time point used in sorting.,Perm
SDTMIG v3.4,32,Interventions,ML,MLELTM,Planned Elapsed Time from Time Point Ref,Char,,,ISO 8601 duration,,Timing,Planned elapsed time (in ISO 8601) relative to the planned fixed reference (MLTPTREF). This variable is useful when there are repetitive measures. Not a clock time or a date/time variable. Represented as an ISO 8601 duration.,Perm
SDTMIG v3.4,33,Interventions,ML,MLTPTREF,Time Point Reference,Char,,,,,Timing,"Description of the fixed reference point referred to by MLELTM, MLTPTNUM, and MLTPT.",Perm
SDTMIG v3.4,34,Interventions,ML,MLRFTDTC,Date/Time of Reference Time Point,Char,,,ISO 8601 datetime or interval,,Timing,Date/time for a fixed reference time point defined by MLTPTREF in ISO 8601 character format.,Perm
SDTMIG v3.4,35,Interventions,ML,MIDS,Disease Milestone Instance Name,Char,,,,,Timing,The name of a specific instance of a disease milestone type (MIDSTYPE) described in the Trial Disease Milestones dataset. This should be unique within a subject. Used only in conjunction with RELMIDS and MIDSDTC.,Perm
SDTMIG v3.4,36,Interventions,ML,RELMIDS,Temporal Relation to Milestone Instance,Char,,,,,Timing,"The temporal relationship of the observation to the disease milestone instance name in MIDS. Examples: ""IMMEDIATELY BEFORE"", ""AT TIME OF"", ""AFTER"".",Perm
SDTMIG v3.4,37,Interventions,ML,MIDSDTC,Disease Milestone Instance Date/Time,Char,,,ISO 8601 datetime or interval,,Timing,"The start date/time of the disease milestone instance name in MIDS, in ISO 8601 format.",Perm
SDTMIG v3.4,1,Interventions,PR,STUDYID,Study Identifier,Char,,,,,Identifier,Unique identifier for a study.,Req
SDTMIG v3.4,2,Interventions,PR,DOMAIN,Domain Abbreviation,Char,,,,PR,Identifier,Two-character abbreviation for the domain.,Req
SDTMIG v3.4,3,Interventions,PR,USUBJID,Unique Subject Identifier,Char,,,,,Identifier,Identifier used to uniquely identify a subject across all studies for all applications or submissions involving the product.,Req
SDTMIG v3.4,4,Interventions,PR,PRSEQ,Sequence Number,Num,,,,,Identifier,Sequence number given to ensure uniqueness of subject records within a domain. May be any valid number.,Req
SDTMIG v3.4,5,Interventions,PR,PRGRPID,Group ID,Char,,,,,Identifier,Used to link together a block of related records within a subject in a domain.,Perm
SDTMIG v3.4,6,Interventions,PR,PRSPID,Sponsor-Defined Identifier,Char,,,,,Identifier,"Sponsor-defined identifier. Example: preprinted line identifier on a CRF, record identifier defined in the sponsor's operational database.",Perm
SDTMIG v3.4,7,Interventions,PR,PRLNKID,Link ID,Char,,,,,Identifier,Used to facilitate identification of relationships between records.,Perm
SDTMIG v3.4,8,Interventions,PR,PRLNKGRP,Link Group ID,Char,,,,,Identifier,Used to facilitate identification of relationships between records.,Perm
SDTMIG v3.4,9,Interventions,PR,PRTRT,Reported Name of Procedure,Char,,,,,Topic,"Name of procedure performed, either preprinted or collected on a CRF.",Req
SDTMIG v3.4,10,Interventions,PR,PRDECOD,Standardized Procedure Name,Char,C101858,,,,Synonym Qualifier,"Standardized or dictionary-derived name of PRTRT. If the codelist ""PROCEDUR"" is not used, the sponsor is expected to provide the dictionary name and version used to map the terms in the external codelist element in the Define-XML document. If an intervention term does not have a decode value, then PRDECOD will be null.",Perm
SDTMIG v3.4,11,Interventions,PR,PRCAT,Category,Char,,,,,Grouping Qualifier,Used to define a category of procedure values.,Perm
SDTMIG v3.4,12,Interventions,PR,PRSCAT,Subcategory,Char,,,,,Grouping Qualifier,Used to define a further categorization of PRCAT values.,Perm
SDTMIG v3.4,13,Interventions,PR,PRPRESP,Pre-specified,Char,C66742,,,,Variable Qualifier,"Used when a specific procedure is pre-specified on a CRF. Values should be ""Y"" or null.",Perm
SDTMIG v3.4,14,Interventions,PR,PROCCUR,Occurrence,Char,C66742,,,,Record Qualifier,Used to record whether a prespecified procedure occurred when information about the occurrence of a specific procedure is solicited.,Perm
SDTMIG v3.4,15,Interventions,PR,PRINDC,Indication,Char,,,,,Record Qualifier,"Denotes the indication for the procedure (e.g., why the procedure was performed).",Perm
SDTMIG v3.4,16,Interventions,PR,PRDOSE,Dose,Num,,,,,Record Qualifier,Amount of PRTRT administered. Not populated when PRDOSTXT is populated.,Perm
SDTMIG v3.4,17,Interventions,PR,PRDOSTXT,Dose Description,Char,,,,,Record Qualifier,"Dosing information collected in text form. Examples: ""<1"", ""200-400"". Not populated when PRDOSE is populated.",Perm
SDTMIG v3.4,18,Interventions,PR,PRDOSU,Dose Units,Char,C71620,,,,Variable Qualifier,"Units for PRDOSE, PRDOSTOT, or PRDOSTXT.",Perm
SDTMIG v3.4,19,Interventions,PR,PRDOSFRM,Dose Form,Char,C66726,,,,Variable Qualifier,Dose form for PRTRT.,Perm
SDTMIG v3.4,20,Interventions,PR,PRDOSFRQ,Dosing Frequency per Interval,Char,C71113,,,,Record Qualifier,Usually expressed as the number of doses given per a specific interval.,Perm
SDTMIG v3.4,21,Interventions,PR,PRDOSRGM,Intended Dose Regimen,Char,,,,,Record Qualifier,Text description of the intended schedule or regimen for the procedure.,Perm
SDTMIG v3.4,22,Interventions,PR,PRROUTE,Route of Administration,Char,C66729,,,,Variable Qualifier,Route of administration for PRTRT.,Perm
SDTMIG v3.4,23,Interventions,PR,PRLOC,Location of Procedure,Char,C74456,,,,Record Qualifier,Anatomical location of a procedure.,Perm
SDTMIG v3.4,24,Interventions,PR,PRLAT,Laterality,Char,C99073,,,,Variable Qualifier,Qualifier for anatomical location or specimen further detailing laterality.,Perm
SDTMIG v3.4,25,Interventions,PR,PRDIR,Directionality,Char,C99074,,,,Variable Qualifier,Qualifier for anatomical location or specimen further detailing directionality.,Perm
SDTMIG v3.4,26,Interventions,PR,PRPORTOT,Portion or Totality,Char,C99075,,,,Variable Qualifier,"Qualifier for anatomical location or specimen further detailing the distribution, which means arrangement of, apportioning of.",Perm
SDTMIG v3.4,27,Interventions,PR,VISITNUM,Visit Number,Num,,,,,Timing,"Clinical encounter number. Numeric version of VISIT, used for sorting.",Perm
SDTMIG v3.4,28,Interventions,PR,VISIT,Visit Name,Char,,,,,Timing,Protocol-defined description of a clinical encounter.,Perm
SDTMIG v3.4,29,Interventions,PR,VISITDY,Planned Study Day of Visit,Num,,,,,Timing,Planned study day of VISIT. Should be an integer.,Perm
SDTMIG v3.4,30,Interventions,PR,TAETORD,Planned Order of Element within Arm,Num,,,,,Timing,Number that gives the planned order of the element within the arm.,Perm
SDTMIG v3.4,31,Interventions,PR,EPOCH,Epoch,Char,C99079,,,,Timing,Epoch associated with the start date/time of the procedure.,Perm
SDTMIG v3.4,32,Interventions,PR,PRSTDTC,Start Date/Time of Procedure,Char,,,ISO 8601 datetime or interval,,Timing,Start date/time of the procedure represented in ISO 8601 character format.,Exp
SDTMIG v3.4,33,Interventions,PR,PRENDTC,End Date/Time of Procedure,Char,,,ISO 8601 datetime or interval,,Timing,End date/time of the procedure represented in ISO 8601 character format.,Perm
SDTMIG v3.4,34,Interventions,PR,PRSTDY,Study Day of Start of Procedure,Num,,,,,Timing,Study day of start of procedure expressed in integer days relative to the sponsor-defined RFSTDTC in Demographics.,Perm
SDTMIG v3.4,35,Interventions,PR,PRENDY,Study Day of End of Procedure,Num,,,,,Timing,Study day of end of procedure expressed in integer days relative to the sponsor-defined RFSTDTC in Demographics.,Perm
SDTMIG v3.4,36,Interventions,PR,PRDUR,Duration of Procedure,Char,,,ISO 8601 duration,,Timing,Collected duration of a procedure represented in ISO 8601 character format. Used only if collected on the CRF and not derived from start and end date/times.,Perm
SDTMIG v3.4,37,Interventions,PR,PRTPT,Planned Time Point Name,Char,,,,,Timing,"Text description of time when a procedure should be performed. This may be represented as an elapsed time relative to a fixed reference point, such as time of last dose. See PRTPTNUM and PRTPTREF.",Perm
SDTMIG v3.4,38,Interventions,PR,PRTPTNUM,Planned Time Point Number,Num,,,,,Timing,Numerical version of planned time point used in sorting.,Perm
SDTMIG v3.4,39,Interventions,PR,PRELTM,Planned Elapsed Time from Time Point Ref,Char,,,ISO 8601 duration,,Timing,"Planned elapsed time in ISO 8601 format relative to a planned fixed reference (PRTPTREF). This variable is useful where there are repetitive measures. Not a clock time or a date/time variable, but an interval, represented as ISO duration.",Perm
SDTMIG v3.4,40,Interventions,PR,PRTPTREF,Time Point Reference,Char,,,,,Timing,"Description of the fixed reference point referred to by PRELTM, PRTPTNUM, and PRTPT.",Perm
SDTMIG v3.4,41,Interventions,PR,PRRFTDTC,Date/Time of Reference Time Point,Char,,,ISO 8601 datetime or interval,,Timing,Date/time for a fixed reference time point defined by PRTRTREF in ISO 8601 character format.,Perm
SDTMIG v3.4,42,Interventions,PR,PRSTRTPT,Start Relative to Reference Time Point,Char,C66728,,,,Timing,"Identifies the start of the observation as being before or after the sponsor-defined reference time point defined by variable PRSTTPT. \n Not all values of the codelist are allowable for this variable. See Section 4.4.7, Use of Relative Timing Variables.",Perm
SDTMIG v3.4,43,Interventions,PR,PRSTTPT,Start Reference Time Point,Char,,,,,Timing,"Description or date/time in ISO 8601 character format of the sponsor-defined reference point referred to by PRSTRTPT. Examples: ""2003-12-15"", ""VISIT 1"".",Perm
SDTMIG v3.4,44,Interventions,PR,PRENRTPT,End Relative to Reference Time Point,Char,C66728,,,,Timing,"Identifies the end of the observation as being before or after the sponsor-defined reference time point defined by variable PRENTPT. \n Not all values of the codelist are allowable for this variable. See Section 4.4.7, Use of Relative Timing Variables.",Perm
SDTMIG v3.4,45,Interventions,PR,PRENTPT,End Reference Time Point,Char,,,,,Timing,"Description or date/time in ISO 8601 character format of the sponsor-defined reference point referred to by PRENRTPT. Examples: ""2003-12-25"", ""VISIT 2"".",Perm
SDTMIG v3.4,1,Interventions,SU,STUDYID,Study Identifier,Char,,,,,Identifier,Unique identifier for a study.,Req
SDTMIG v3.4,2,Interventions,SU,DOMAIN,Domain Abbreviation,Char,,,,SU,Identifier,Two-character abbreviation for the domain.,Req
SDTMIG v3.4,3,Interventions,SU,USUBJID,Unique Subject Identifier,Char,,,,,Identifier,Identifier used to uniquely identify a subject across all studies for all applications or submissions involving the product.,Req
SDTMIG v3.4,4,Interventions,SU,SUSEQ,Sequence Number,Num,,,,,Identifier,Sequence number given to ensure uniqueness of subject records within a domain. May be any valid number.,Req
SDTMIG v3.4,5,Interventions,SU,SUGRPID,Group ID,Char,,,,,Identifier,Used to tie together a block of related records in a single domain for a subject.,Perm
SDTMIG v3.4,6,Interventions,SU,SUSPID,Sponsor-Defined Identifier,Char,,,,,Identifier,Sponsor-defined reference number. May be preprinted on the CRF as an explicit line identifier or defined in the sponsor's operational database. Example: Line number on a Tobacco & Alcohol Use CRF page.,Perm
SDTMIG v3.4,7,Interventions,SU,SUTRT,Reported Name of Substance,Char,,,,,Topic,"Substance name. Examples: ""CIGARETTES"", ""COFFEE"".",Req
SDTMIG v3.4,8,Interventions,SU,SUMODIFY,Modified Substance Name,Char,,,,,Synonym Qualifier,"If SUTRT is modified, then the modified text is placed here.",Perm
SDTMIG v3.4,9,Interventions,SU,SUDECOD,Standardized Substance Name,Char,,,,,Synonym Qualifier,Standardized or dictionary-derived text description of SUTRT or SUMODIFY if the sponsor chooses to code the substance use. The sponsor is expected to provide the dictionary name and version used to map the terms utilizing the external codelist element in the Define-XML document.,Perm
SDTMIG v3.4,10,Interventions,SU,SUCAT,Category for Substance Use,Char,,,,,Grouping Qualifier,"Used to define a category of related records. Examples: ""TOBACCO"", ""ALCOHOL"", or ""CAFFEINE"".",Perm
SDTMIG v3.4,11,Interventions,SU,SUSCAT,Subcategory for Substance Use,Char,,,,,Grouping Qualifier,"A further categorization of substance use. Examples: ""CIGARS"", ""CIGARETTES"", ""BEER"", ""WINE"".",Perm
SDTMIG v3.4,12,Interventions,SU,SUPRESP,SU Pre-Specified,Char,C66742,,,,Variable Qualifier,"Used to indicate whether (""Y""/null) information about the use of a specific substance was solicited on the CRF.",Perm
SDTMIG v3.4,13,Interventions,SU,SUOCCUR,SU Occurrence,Char,C66742,,,,Record Qualifier,"When the use of specific substances is solicited, SUOCCUR is used to indicate whether (""Y""/""N"") a particular prespecified substance was used. Values are null for substances not specifically solicited.",Perm
SDTMIG v3.4,14,Interventions,SU,SUSTAT,Completion Status,Char,C66789,,,,Record Qualifier,"When the use of prespecified substances is solicited, the completion status indicates that there was no response to the question about the prespecified substance. When there is no prespecified list on the CRF, then the completion status indicates that substance use was not assessed for the subject.",Perm
SDTMIG v3.4,15,Interventions,SU,SUREASND,Reason Substance Use Not Collected,Char,,,,,Record Qualifier,"Describes the reason substance use was not collected. Used in conjunction with SUSTAT when value of SUSTAT is ""NOT DONE"".",Perm
SDTMIG v3.4,16,Interventions,SU,SUCLAS,Substance Use Class,Char,,,,,Variable Qualifier,"Substance use class. May be obtained from coding. When coding to a single class, populate with class value. If using a dictionary and coding to multiple classes, then follow Section 4.2.8.3, Multiple Values for a Non-result Qualifier Variable, or omit SUCLAS.",Perm
SDTMIG v3.4,17,Interventions,SU,SUCLASCD,Substance Use Class Code,Char,,,,,Variable Qualifier,Code corresponding to SUCLAS. May be obtained from coding.,Perm
SDTMIG v3.4,18,Interventions,SU,SUDOSE,Substance Use Consumption,Num,,,,,Record Qualifier,Amount of SUTRT consumed. Not populated if SUDOSTXT is populated.,Perm
SDTMIG v3.4,19,Interventions,SU,SUDOSTXT,Substance Use Consumption Text,Char,,,,,Record Qualifier,Substance use consumption amounts or a range of consumption information collected in text form. Not populated if SUDOSE is populated.,Perm
SDTMIG v3.4,20,Interventions,SU,SUDOSU,Consumption Units,Char,C71620,,,,Variable Qualifier,"Units for SUDOSE, SUDOSTOT, or SUDOSTXT. Examples: ""oz"", ""CIGARETTE"", ""PACK"", ""g"".",Perm
SDTMIG v3.4,21,Interventions,SU,SUDOSFRM,Dose Form,Char,C66726,,,,Variable Qualifier,"Dose form for SUTRT. Examples: ""INJECTABLE"", ""LIQUID"", ""POWDER"".",Perm
SDTMIG v3.4,22,Interventions,SU,SUDOSFRQ,Use Frequency Per Interval,Char,C71113,,,,Variable Qualifier,"Usually expressed as the number of repeated administrations of SUDOSE within a specific time period. Example: ""Q24H"" (every day).",Perm
SDTMIG v3.4,23,Interventions,SU,SUDOSTOT,Total Daily Consumption,Num,,,,,Record Qualifier,"Total daily use of SUTRT using the units in SUDOSU. Used when dosing is collected as total daily dose. If a sponsor needs to aggregate the data over a period other than daily, then the aggregated total could be recorded in a supplemental qualifier variable.",Perm
SDTMIG v3.4,24,Interventions,SU,SUROUTE,Route of Administration,Char,C66729,,,,Variable Qualifier,"Route of administration for SUTRT. Examples: ""ORAL"", ""INTRAVENOUS"".",Perm
SDTMIG v3.4,25,Interventions,SU,TAETORD,Planned Order of Element within Arm,Num,,,,,Timing,Number that gives the planned order of the element within the arm for the element in which the substance use started. Null for substances that started before study participation.,Perm
SDTMIG v3.4,26,Interventions,SU,EPOCH,Epoch,Char,C99079,,,,Timing,Epoch associated with the start date/time of the substance use. Null for substances that started before study participation.,Perm
SDTMIG v3.4,27,Interventions,SU,SUSTDTC,Start Date/Time of Substance Use,Char,,,ISO 8601 datetime or interval,,Timing,Start date/time of the substance use represented in ISO 8601 character format.,Perm
SDTMIG v3.4,28,Interventions,SU,SUENDTC,End Date/Time of Substance Use,Char,,,ISO 8601 datetime or interval,,Timing,End date/time of the substance use represented in ISO 8601 character format.,Perm
SDTMIG v3.4,29,Interventions,SU,SUSTDY,Study Day of Start of Substance Use,Num,,,,,Timing,Study day of start of substance use relative to the sponsor-defined RFSTDTC.,Perm
SDTMIG v3.4,30,Interventions,SU,SUENDY,Study Day of End of Substance Use,Num,,,,,Timing,Study day of end of substance use relative to the sponsor-defined RFSTDTC.,Perm
SDTMIG v3.4,31,Interventions,SU,SUDUR,Duration of Substance Use,Char,,,ISO 8601 duration,,Timing,Collected duration of substance use in ISO 8601 format. Used only if collected on the CRF and not derived from start and end date/times.,Perm
SDTMIG v3.4,32,Interventions,SU,SUSTRF,Start Relative to Reference Period,Char,C66728,,,,Timing,"Describes the start of the substance use relative to the sponsor-defined reference period. The sponsor-defined reference period is a continuous period of time defined by a discrete starting point and a discrete ending point (represented by RFSTDTC and RFENDTC in Demographics). If information such as ""PRIOR"" was collected, this information may be translated into SUSTRF. \n Not all values of the codelist are allowable for this variable. See Section 4.4.7, Use of Relative Timing Variables.",Perm
SDTMIG v3.4,33,Interventions,SU,SUENRF,End Relative to Reference Period,Char,C66728,,,,Timing,"Describes the end of the substance use with relative to the sponsor-defined reference period. The sponsor-defined reference period is a continuous period of time defined by a discrete starting point and a discrete ending point (represented by RFSTDTC and RFENDTC in Demographics). If information such as ""PRIOR"", ""ONGOING"", or ""CONTINUING"" was collected, this information may be translated into SUENRF. \n Not all values of the codelist are allowable for this variable. See Section 4.4.7, Use of Relative Timing Variables.",Perm
SDTMIG v3.4,34,Interventions,SU,SUSTRTPT,Start Relative to Reference Time Point,Char,C66728,,,,Timing,"Identifies the start of the substance as being before or after the reference time point defined by variable SUSTTPT. \n Not all values of the codelist are allowable for this variable. See Section 4.4.7 , Use of Relative Timing Variables.",Perm
SDTMIG v3.4,35,Interventions,SU,SUSTTPT,Start Reference Time Point,Char,,,,,Timing,"Description or date/time in ISO 8601 character format of the reference point referred to by SUSTRTPT. Examples: ""2003-12-15"", ""VISIT 1"".",Perm
SDTMIG v3.4,36,Interventions,SU,SUENRTPT,End Relative to Reference Time Point,Char,C66728,,,,Timing,"Identifies the end of the substance as being before or after the reference time point defined by variable SUENTPT. \n Not all values of the codelist are allowable for this variable. See Section 4.4.7 , Use of Relative Timing Variables.",Perm
SDTMIG v3.4,37,Interventions,SU,SUENTPT,End Reference Time Point,Char,,,,,Timing,"Description or date/time in ISO 8601 character format of the reference point referred to by SUENRTPT. Examples: ""2003-12-25"", ""VISIT 2"".",Perm
SDTMIG v3.4,1,Events,AE,STUDYID,Study Identifier,Char,,,,,Identifier,Unique identifier for a study.,Req
SDTMIG v3.4,2,Events,AE,DOMAIN,Domain Abbreviation,Char,,,,AE,Identifier,Two-character abbreviation for the domain.,Req
SDTMIG v3.4,3,Events,AE,USUBJID,Unique Subject Identifier,Char,,,,,Identifier,Identifier used to uniquely identify a subject across all studies for all applications or submissions involving the product.,Req
SDTMIG v3.4,4,Events,AE,SPDEVID,Sponsor Device Identifier,Char,,,,,Identifier,A sequence of characters used by the sponsor to uniquely identify a specific device. Used to represent a device associated in some way with the adverse event. SPDEVID values are defined in the Device Identifiers (DI) domain.,Perm
SDTMIG v3.4,5,Events,AE,AESEQ,Sequence Number,Num,,,,,Identifier,Sequence number given to ensure uniqueness of subject records within a domain. May be any valid number.,Req
SDTMIG v3.4,6,Events,AE,AEGRPID,Group ID,Char,,,,,Identifier,Used to tie together a block of related records in a single domain for a subject.,Perm
SDTMIG v3.4,7,Events,AE,AEREFID,Reference ID,Char,,,,,Identifier,Internal or external identifier such as a serial number on an SAE reporting form.,Perm
SDTMIG v3.4,8,Events,AE,AESPID,Sponsor-Defined Identifier,Char,,,,,Identifier,Sponsor-defined identifier. It may be preprinted on the CRF as an explicit line identifier or defined in the sponsor's operational database. Example: Line number on an Adverse Events CRF page.,Perm
SDTMIG v3.4,9,Events,AE,AETERM,Reported Term for the Adverse Event,Char,,,,,Topic,Verbatim name of the event.,Req
SDTMIG v3.4,10,Events,AE,AEMODIFY,Modified Reported Term,Char,,,,,Synonym Qualifier,"If AETERM is modified to facilitate coding, then AEMODIFY will contain the modified text.",Perm
SDTMIG v3.4,11,Events,AE,AELLT,Lowest Level Term,Char,,,MedDRA,,Variable Qualifier,Dictionary-derived text description of the lowest level term.,Exp
SDTMIG v3.4,12,Events,AE,AELLTCD,Lowest Level Term Code,Num,,,MedDRA,,Variable Qualifier,Dictionary-derived code for the lowest level term.,Exp
SDTMIG v3.4,13,Events,AE,AEDECOD,Dictionary-Derived Term,Char,,,MedDRA,,Synonym Qualifier,Dictionary-derived text description of AETERM or AEMODIFY. Equivalent to the Preferred Term (PT in MedDRA). The sponsor is expected to provide the dictionary name and version used to map the terms utilizing the external codelist element in the Define-XML document.,Req
SDTMIG v3.4,14,Events,AE,AEPTCD,Preferred Term Code,Num,,,MedDRA,,Variable Qualifier,Dictionary-derived code for the preferred term.,Exp
SDTMIG v3.4,15,Events,AE,AEHLT,High Level Term,Char,,,MedDRA,,Variable Qualifier,Dictionary-derived text description of the high level term for the primary system organ class (SOC).,Exp
SDTMIG v3.4,16,Events,AE,AEHLTCD,High Level Term Code,Num,,,MedDRA,,Variable Qualifier,Dictionary-derived code for the high level term for the primary SOC.,Exp
SDTMIG v3.4,17,Events,AE,AEHLGT,High Level Group Term,Char,,,MedDRA,,Variable Qualifier,Dictionary-derived text description of the high level group term for the primary SOC.,Exp
SDTMIG v3.4,18,Events,AE,AEHLGTCD,High Level Group Term Code,Num,,,MedDRA,,Variable Qualifier,Dictionary-derived code for the high level group term for the primary SOC.,Exp
SDTMIG v3.4,19,Events,AE,AECAT,Category for Adverse Event,Char,,,,,Grouping Qualifier,"Used to define a category of related records. Examples: ""BLEEDING"", ""NEUROPSYCHIATRIC"".",Perm
SDTMIG v3.4,20,Events,AE,AESCAT,Subcategory for Adverse Event,Char,,,,,Grouping Qualifier,"A further categorization of adverse event. Example: ""NEUROLOGIC"".",Perm
SDTMIG v3.4,21,Events,AE,AEPRESP,Pre-Specified Adverse Event,Char,C66742,,,,Variable Qualifier,"A value of ""Y"" indicates that this adverse event was prespecified on the CRF. Values are null for spontaneously reported events (i.e., those collected as free-text verbatim terms).",Perm
SDTMIG v3.4,22,Events,AE,AEBODSYS,Body System or Organ Class,Char,,,,,Record Qualifier,"Dictionary derived. Body system or organ class used by the sponsor from the coding dictionary (e.g., MedDRA). When using a multi-axial dictionary such as MedDRA, this should contain the SOC used for the sponsor's analyses and summary tables, which may not necessarily be the primary SOC.",Exp
SDTMIG v3.4,23,Events,AE,AEBDSYCD,Body System or Organ Class Code,Num,,,MedDRA,,Variable Qualifier,"Dictionary derived. Code for the body system or organ class used by the sponsor. When using a multi-axial dictionary such as MedDRA, this should contain the SOC used for the sponsor's analyses and summary tables, which may not necessarily be the primary SOC.",Exp
SDTMIG v3.4,24,Events,AE,AESOC,Primary System Organ Class,Char,,,MedDRA,,Variable Qualifier,Dictionary-derived text description of the primary SOC. Will be the same as AEBODSYS if the primary SOC was used for analysis.,Exp
SDTMIG v3.4,25,Events,AE,AESOCCD,Primary System Organ Class Code,Num,,,MedDRA,,Variable Qualifier,Dictionary-derived code for the primary SOC. Will be the same as AEBDSYCD if the primary SOC was used for analysis.,Exp
SDTMIG v3.4,26,Events,AE,AELOC,Location of Event,Char,C74456,,,,Record Qualifier,"Describes anatomical location relevant for the event (e.g., ""ARM"" for skin rash).",Perm
SDTMIG v3.4,27,Events,AE,AESEV,Severity/Intensity,Char,C66769,,,,Record Qualifier,"The severity or intensity of the event. Examples: ""MILD"", ""MODERATE"", ""SEVERE"".",Perm
SDTMIG v3.4,28,Events,AE,AESER,Serious Event,Char,C66742,,,,Record Qualifier,"Is this a serious event? Valid values are ""Y"" and ""N"".",Exp
SDTMIG v3.4,29,Events,AE,AEACN,Action Taken with Study Treatment,Char,C66767,,,,Record Qualifier,"Describes changes to the study treatment as a result of the event. AEACN is specifically for the relationship to study treatment. AEACNOTH is for actions unrelated to dose adjustments of study treatment. Examples of AEACN values include ICH E2B values: ""DRUG WITHDRAWN"", ""DOSE REDUCED"", ""DOSE INCREASED"", ""DOSE NOT CHANGED"", ""UNKNOWN"" and ""NOT APPLICABLE"".",Exp
SDTMIG v3.4,30,Events,AE,AEACNOTH,Other Action Taken,Char,,,,,Record Qualifier,"Describes other actions taken as a result of the event that are unrelated to dose adjustments of study treatment. Usually reported as free text. Example: ""TREATMENT UNBLINDED. PRIMARY CARE PHYSICIAN NOTIFIED"".",Perm
SDTMIG v3.4,31,Events,AE,AEACNDEV,Action Taken with Device,Char,C111110,,,,Record Qualifier,An action taken with a device as the result of the event. The device may or may not be a device under study.,Perm
SDTMIG v3.4,32,Events,AE,AEREL,Causality,Char,,,,,Record Qualifier,"Records the investigator's opinion as to the causality of the event to the treatment. ICH does not establish any required or recommended terms for non-device relatedness. ICH E2A and E2B examples include (up-cased here for alignment to SDTM conventions) terms such as ""NOT RELATED"", ""UNLIKELY RELATED"", ""POSSIBLY RELATED"", ""RELATED"", but these example terms do not establish any conventions or expectations. Controlled terminology may be defined in the future. Check with regulatory authority for population of this variable.",Exp
SDTMIG v3.4,33,Events,AE,AERLDEV,Relationship of Event to Device,Char,,,,,Record Qualifier,"A judgment as to the likelihood that the device caused the adverse event. The relationship is to a device identified in the data (i.e., has an SPDEVID). The device may be ancillary or under study. \n Terminology: \n * In the EU, follow the European Commission Guidelines on Medical Devices, Clinical Investigations: SAE Reporting (MEDDEV 2.7/3) (e.g., Not Related, Unlikely, Possible, Probable, Causal Relationship), with device-specific definitions. \n * No required Controlled Terminology in US.",Perm
SDTMIG v3.4,34,Events,AE,AERELNST,Relationship to Non-Study Treatment,Char,,,,,Record Qualifier,"Records the investigator's opinion as to whether the event may have been due to a treatment other than study drug. May be reported as free text. Example: ""MORE LIKELY RELATED TO ASPIRIN USE"".",Perm
SDTMIG v3.4,35,Events,AE,AEPATT,Pattern of Adverse Event,Char,,,,,Record Qualifier,"Used to indicate the pattern of the event over time. Examples: ""INTERMITTENT"", ""CONTINUOUS"", ""SINGLE EVENT"".",Perm
SDTMIG v3.4,36,Events,AE,AEOUT,Outcome of Adverse Event,Char,C66768,,,,Record Qualifier,Description of the outcome of an event.,Perm
SDTMIG v3.4,37,Events,AE,AESCAN,Involves Cancer,Char,C66742,,,,Record Qualifier,"Was the serious event associated with the development of cancer? Valid values are ""Y"" and ""N"". This is a legacy seriousness criterion. It is not included in ICH E2A or E2B.",Perm
SDTMIG v3.4,38,Events,AE,AESCONG,Congenital Anomaly or Birth Defect,Char,C66742,,,,Record Qualifier,"Was the serious event associated with congenital anomaly or birth defect? Valid values are ""Y"" and ""N"".",Perm
SDTMIG v3.4,39,Events,AE,AESDISAB,Persist or Signif Disability/Incapacity,Char,C66742,,,,Record Qualifier,"Did the serious event result in persistent or significant disability/incapacity? Valid values are ""Y"" and ""N"".",Perm
SDTMIG v3.4,40,Events,AE,AESDTH,Results in Death,Char,C66742,,,,Record Qualifier,"Did the serious event result in death? Valid values are ""Y"" and ""N"".",Perm
SDTMIG v3.4,41,Events,AE,AESHOSP,Requires or Prolongs Hospitalization,Char,C66742,,,,Record Qualifier,"Did the serious event require or prolong hospitalization? Valid values are ""Y"" and ""N"".",Perm
SDTMIG v3.4,42,Events,AE,AESLIFE,Is Life Threatening,Char,C66742,,,,Record Qualifier,"Was the serious event life-threatening? Valid values are ""Y"" and ""N"".",Perm
SDTMIG v3.4,43,Events,AE,AESOD,Occurred with Overdose,Char,C66742,,,,Record Qualifier,"Did the serious event occur with an overdose? Valid values are ""Y"" and ""N"". This is a legacy seriousness criterion. It is not included in ICH E2A or E2B.",Perm
SDTMIG v3.4,44,Events,AE,AESMIE,Other Medically Important Serious Event,Char,C66742,,,,Record Qualifier,"Do additional categories for seriousness apply? Valid values are ""Y"" and ""N"".",Perm
SDTMIG v3.4,45,Events,AE,AESINTV,Needs Intervention to Prevent Impairment,Char,C66742,,,,Record Qualifier,"Records whether medical or surgical intervention was necessary to preclude permanent impairment of a body function, or to prevent permanent damage to a body structure, with either situation suspected to be due to the use of a medical product. This variable is used in conjunction with the other ""seriousness"" variables (e.g., fatal, life-threatening). It is part of the US federal government definition of a serious adverse event; see 21 CFR Part 803.3(w)(3).",Perm
SDTMIG v3.4,46,Events,AE,AEUNANT,Unanticipated Adverse Device Effect,Char,C66742,,,,Record Qualifier,"Any serious adverse effect on health or safety or any life-threatening problem or death caused by or associated with a device, if that effect, problem, or death was not previously identified in nature, severity, or degree of incidence in the investigational plan or application (including a supplementary plan or application), \n or \n any other unanticipated serious problem associated with a device that relates to the rights, safety, or welfare of subjects. (21 CFR Part 812.3(s)). \n This variable applies only to serious AEs and should hold collected data; if the value is derived, it should be held in ADaM.",Perm
SDTMIG v3.4,47,Events,AE,AERLPRT,Rel of AE to Non-Dev-Rel Study Activity,Char,,,,,Record Qualifier,"The investigator's opinion as to the causality of the event as related to other protocol-required activities, actions, or assessments (e.g., medication changes, tests/assessments, other procedures). The relationship is to a protocol-specified, non-device-related activity where the device is identified in the data (i.e., has an SPDEVID). The device may be ancillary or under study. \n Terminology: \n * In the EU, follow the European Commission Guidelines on Medical Devices, Clinical Investigations: SAE Reporting (MEDDEV 2.7/3) (e.g., Not Related, Unlikely, Possible, Probable, Causal Relationship), with device-specific definitions. \n * No required Controlled Terminology in US.",Perm
SDTMIG v3.4,48,Events,AE,AERLPRC,Rel of AE to Device-Related Procedure,Char,,,,,Record Qualifier,"The investigator's opinion as to the likelihood that the device-related study procedure (e.g., implant/insertion, revision/adjustment, explant/removal) caused the AE. The relationship is to a device-related procedure where the device is identified in the data (i.e., has an SPDEVID). The device may be ancillary or under study. \n Terminology: \n * In the EU, follow the European Commission Guidelines on Medical Devices, Clinical Investigations: SAE Reporting (MEDDEV 2.7/3) (e.g., Not Related, Unlikely, Possible, Probable, Causal Relationship), with device-specific definitions. \n * No required Controlled Terminology in US.",Perm
SDTMIG v3.4,49,Events,AE,AECONTRT,Concomitant or Additional Trtmnt Given,Char,C66742,,,,Record Qualifier,"Was another treatment given because of the occurrence of the event? Valid values are ""Y"" and ""N"".",Perm
SDTMIG v3.4,50,Events,AE,AETOXGR,Standard Toxicity Grade,Char,,,,,Record Qualifier,"Toxicity grade according to a standard toxicity scale (e.g., Common Terminology Criteria for Adverse Events, CTCAE). Sponsors should specify the name of the scale and version used in the metadata (see assumption 7d). If value is from a numeric scale, represent only the number (e.g., ""2"", not ""Grade 2"").",Perm
SDTMIG v3.4,51,Events,AE,TAETORD,Planned Order of Element within Arm,Num,,,,,Timing,Number that gives the planned order of the element within the arm.,Perm
SDTMIG v3.4,52,Events,AE,EPOCH,Epoch,Char,C99079,,,,Timing,"Epoch associated with the start date/time of the adverse event. Examples: ""SCREENING"", ""TREATMENT"", ""FOLLOW-UP"".",Perm
SDTMIG v3.4,53,Events,AE,AESTDTC,Start Date/Time of Adverse Event,Char,,,ISO 8601 datetime or interval,,Timing,Start date/time of the adverse event represented in ISO 8601 character format.,Exp
SDTMIG v3.4,54,Events,AE,AEENDTC,End Date/Time of Adverse Event,Char,,,ISO 8601 datetime or interval,,Timing,End date/time of the adverse event represented in ISO 8601 character format.,Exp
SDTMIG v3.4,55,Events,AE,AESTDY,Study Day of Start of Adverse Event,Num,,,,,Timing,Study day of start of adverse event relative to the sponsor-defined RFSTDTC.,Perm
SDTMIG v3.4,56,Events,AE,AEENDY,Study Day of End of Adverse Event,Num,,,,,Timing,Study day of end of event relative to the sponsor-defined RFSTDTC.,Perm
SDTMIG v3.4,57,Events,AE,AEDUR,Duration of Adverse Event,Char,,,ISO 8601 duration,,Timing,"Collected duration and unit of an adverse event. Used only if collected on the CRF and not derived from start and end date/times. Example: ""P1DT2H"" (for 1 day, 2 hours).",Perm
SDTMIG v3.4,58,Events,AE,AEENRF,End Relative to Reference Period,Char,C66728,,,,Timing,"Describes the end of the event relative to the sponsor-defined reference period. The sponsor-defined reference period is a continuous period of time defined by a discrete starting point (RFSTDTC) and a discrete ending point (RFENDTC) of the trial. \n Not all values of the codelist are allowable for this variable. See Section 4.4.7, Use of Relative Timing Variables.",Perm
SDTMIG v3.4,59,Events,AE,AEENRTPT,End Relative to Reference Time Point,Char,C66728,,,,Timing,"Identifies the end of the event as being before or after the reference time point defined by variable AEENTPT. \n Not all values of the codelist are allowable for this variable. See Section 4.4.7, Use of Relative Timing Variables.",Perm
SDTMIG v3.4,60,Events,AE,AEENTPT,End Reference Time Point,Char,,,,,Timing,"Description of date/time in ISO 8601 character format of the reference point referred to by AEENRTPT. Examples: ""2003-12-25"", ""VISIT 2"".",Perm
SDTMIG v3.4,1,Events,BE,STUDYID,Study Identifier,Char,,,,,Identifier,Unique identifier for a study.,Req
SDTMIG v3.4,2,Events,BE,DOMAIN,Domain Abbreviation,Char,,,,BE,Identifier,Two-character abbreviation for the domain.,Req
SDTMIG v3.4,3,Events,BE,USUBJID,Unique Subject Identifier,Char,,,,,Identifier,Identifier used to uniquely identify a subject across all studies for all applications or submissions involving the product.,Req
SDTMIG v3.4,4,Events,BE,SPDEVID,Sponsor Device Identifier,Char,,,,,Identifier,Sponsor-defined identifier for a device.,Perm
SDTMIG v3.4,5,Events,BE,BESEQ,Sequence Number,Num,,,,,Identifier,Sequence number to ensure uniqueness of records within a dataset for a subject. May be any valid number (including decimals) and does not have to start at 1.,Req
SDTMIG v3.4,6,Events,BE,BEGRPID,Group ID,Char,,,,,Identifier,"Optional group identifier, used to link together a block of related records within a subject in a domain.",Perm
SDTMIG v3.4,7,Events,BE,BEREFID,Reference ID,Char,,,,,Identifier,Internal or external identifier for the specimen affected or created by the event.,Exp
SDTMIG v3.4,8,Events,BE,BESPID,Sponsor-Defined Identifier,Char,,,,,Identifier,Optional sponsor-defined reference number. Example: Line number on a CRF page.,Perm
SDTMIG v3.4,9,Events,BE,BETERM,Reported Term for the Biospecimen Event,Char,,,,,Topic,"Topic variable for an event observation, which is the verbatim or pre-specified name of the event.",Req
SDTMIG v3.4,10,Events,BE,BEMODIFY,Modified Reported Term,Char,,,,,Synonym Qualifier,"If the value for BETERM is modified for coding purposes, then the modified text is placed here.",Perm
SDTMIG v3.4,11,Events,BE,BEDECOD,Dictionary-Derived Term,Char,C124297,,,,Synonym Qualifier,"Dictionary-derived text description of BETERM or BEMODIFY, if applicable.",Perm
SDTMIG v3.4,12,Events,BE,BECAT,Category for Biospecimen Event,Char,,,,,Grouping Qualifier,"Used to define a category of topic-variable values. Example: COLLECTION, PREPARATION, TRANSPORT.",Perm
SDTMIG v3.4,13,Events,BE,BESCAT,Subcategory for Biospecimen Event,Char,,,,,Grouping Qualifier,A further categorization of BECAT values.,Perm
SDTMIG v3.4,14,Events,BE,BELOC,Anatomical Location of Event,Char,C74456,,,,Record Qualifier,"Describes the anatomical location relevant for the event (e.g. BRAIN, LUNG).",Perm
SDTMIG v3.4,15,Events,BE,BEPARTY,Accountable Party,Char,,,,,Record Qualifier,"Party accountable for the transferable object (e.g. specimen) as a result of the activity performed in the associated BETERM variable. The party could be an individual (e.g., subject), an organization (e.g., sponsor), or a location that is a proxy for an individual or organization (e.g., site). It is usually a somewhat general term that is further identified in the BEPRTYID variable.",Perm
SDTMIG v3.4,16,Events,BE,BEPRTYID,Identification of Accountable Party,Char,,,,,Record Qualifier,Identification of the specific party accountable for the transferable object (e.g. Specimen) after the action in BETERM is taken. Used in conjunction with BEPARTY.,Perm
SDTMIG v3.4,17,Events,BE,VISITNUM,Visit Number,Num,,,,,Timing,"Clinical encounter number. Numeric version of VISIT, used for sorting.",Exp
SDTMIG v3.4,18,Events,BE,VISIT,Visit Name,Char,,,,,Timing,Protocol-defined description of clinical encounter.,Perm
SDTMIG v3.4,19,Events,BE,VISITDY,Planned Study Day of Visit,Num,,,,,Timing,Planned study day of VISIT. Should be an integer.,Perm
SDTMIG v3.4,20,Events,BE,BEDTC,Date/Time of Specimen Collection,Char,,,ISO 8601 datetime or interval,,Timing,Date and time of specimen collection.,Exp
SDTMIG v3.4,21,Events,BE,BESTDTC,Start Date/Time of Biospecimen Event,Char,,,ISO 8601 datetime or interval,,Timing,Start date/time of the event.,Exp
SDTMIG v3.4,22,Events,BE,BEENDTC,End Date/Time of Biospecimen Event,Char,,,ISO 8601 datetime or interval,,Timing,End date/time of the event.,Exp
SDTMIG v3.4,23,Events,BE,BESTDY,Study Day of Start of Biospecimen Event,Num,,,,,Timing,Actual study day of start of observation expressed in integer days relative to the sponsor-defined RFSTDTC in Demographics.,Perm
SDTMIG v3.4,24,Events,BE,BEENDY,Study Day of End of Biospecimen Event,Num,,,,,Timing,Actual study day of end of observation expressed in integer days relative to the sponsor-defined RFSTDTC in Demographics.,Perm
SDTMIG v3.4,25,Events,BE,BEDUR,Duration of Biospecimen Event,Char,,,ISO 8601 duration,,Timing,"Collected duration and unit of a biospecimen event. Used only if collected on the CRF and not derived from start and end date/times. Example: P1DT2H (for 1 day, 2 hours).",Perm
SDTMIG v3.4,1,Events,CE,STUDYID,Study Identifier,Char,,,,,Identifier,Unique identifier for a study.,Req
SDTMIG v3.4,2,Events,CE,DOMAIN,Domain Abbreviation,Char,,,,CE,Identifier,Two-character abbreviation for the domain.,Req
SDTMIG v3.4,3,Events,CE,USUBJID,Unique Subject Identifier,Char,,,,,Identifier,Identifier used to uniquely identify a subject across all studies for all applications or submissions involving the product.,Req
SDTMIG v3.4,4,Events,CE,CESEQ,Sequence Number,Num,,,,,Identifier,Sequence number given to ensure uniqueness of subject records within a domain. May be any valid number.,Req
SDTMIG v3.4,5,Events,CE,CEGRPID,Group ID,Char,,,,,Identifier,Used to link together a block of related records for a subject within a domain.,Perm
SDTMIG v3.4,6,Events,CE,CEREFID,Reference ID,Char,,,,,Identifier,"Internal or external identifier (e.g., lab specimen ID, UUID for an ECG waveform or medical image).",Perm
SDTMIG v3.4,7,Events,CE,CESPID,Sponsor-Defined Identifier,Char,,,,,Identifier,Sponsor-defined identifier.,Perm
SDTMIG v3.4,8,Events,CE,CETERM,Reported Term for the Clinical Event,Char,,,,,Topic,Term for the medical condition or event. Most likely preprinted on CRF.,Req
SDTMIG v3.4,9,Events,CE,CEDECOD,Dictionary-Derived Term,Char,,,,,Synonym Qualifier,Controlled terminology for the name of the clinical event. The sponsor is expected to provide the dictionary name and version used to map the terms utilizing the external codelist element in the Define-XML document.,Perm
SDTMIG v3.4,10,Events,CE,CECAT,Category for the Clinical Event,Char,,,,,Grouping Qualifier,Used to define a category of related records.,Perm
SDTMIG v3.4,11,Events,CE,CESCAT,Subcategory for the Clinical Event,Char,,,,,Grouping Qualifier,A further categorization of the condition or event.,Perm
SDTMIG v3.4,12,Events,CE,CEPRESP,Clinical Event Pre-specified,Char,C66742,,,,Variable Qualifier,"Used to indicate whether the event in CETERM was prespecified. Value is ""Y"" for prespecified events and null for spontaneously reported events.",Perm
SDTMIG v3.4,13,Events,CE,CEOCCUR,Clinical Event Occurrence,Char,C66742,,,,Record Qualifier,"Used when the occurrence of specific events is solicited, to indicate whether or not a clinical event occurred. Values are null for spontaneously reported events.",Perm
SDTMIG v3.4,14,Events,CE,CESTAT,Completion Status,Char,C66789,,,,Record Qualifier,The status indicates that a question from a prespecified list was not answered.,Perm
SDTMIG v3.4,15,Events,CE,CEREASND,Reason Clinical Event Not Collected,Char,,,,,Record Qualifier,"Describes the reason clinical event data was not collected. Used in conjunction with CESTAT when value is ""NOT DONE"".",Perm
SDTMIG v3.4,16,Events,CE,CEBODSYS,Body System or Organ Class,Char,,,,,Record Qualifier,"Dictionary-derived. Body system or organ class that is involved in an event or measurement from a standard hierarchy (e.g., MedDRA). When using a multi-axial dictionary such as MedDRA, this should contain the SOC used for the sponsor's analyses and summary tables, which may not necessarily be the primary SOC.",Perm
SDTMIG v3.4,17,Events,CE,CESEV,Severity/Intensity,Char,C165643,,,,Record Qualifier,"The severity or intensity of the event. Examples: ""MILD"", ""MODERATE"", ""SEVERE"".",Perm
SDTMIG v3.4,18,Events,CE,CETOXGR,Standard Toxicity Grade,Char,,,,,Record Qualifier,"Toxicity grade according to a standard toxicity scale (e.g., Common Terminology Criteria for Adverse Events (CTCAE) v3.0). Sponsor should specify name of the scale and version used in the metadata. If value is from a numeric scale, represent only the number (e.g., ""2"", not ""Grade 2"").",Perm
SDTMIG v3.4,19,Events,CE,TAETORD,Planned Order of Element within Arm,Num,,,,,Timing,Number that gives the planned order of the element within the arm for the element in which the clinical event started.,Perm
SDTMIG v3.4,20,Events,CE,EPOCH,Epoch,Char,C99079,,,,Timing,Epoch associated with the start date/time of the clinical event.,Perm
SDTMIG v3.4,21,Events,CE,CEDTC,Date/Time of Event Collection,Char,,,ISO 8601 datetime or interval,,Timing,Collection date and time for the clinical event observation represented in ISO 8601 character format.,Perm
SDTMIG v3.4,22,Events,CE,CESTDTC,Start Date/Time of Clinical Event,Char,,,ISO 8601 datetime or interval,,Timing,Start date/time of the clinical event represented in ISO 8601 character format.,Perm
SDTMIG v3.4,23,Events,CE,CEENDTC,End Date/Time of Clinical Event,Char,,,ISO 8601 datetime or interval,,Timing,"End date/time of the clinical event, represented in ISO 8601 character format.",Perm
SDTMIG v3.4,24,Events,CE,CEDY,Study Day of Event Collection,Num,,,,,Timing,"Study day of clinical event collection, measured as integer days. Algorithm for calculations must be relative to the sponsor-defined RFSTDTC variable in Demographics. This formula should be consistent across the submission.",Perm
SDTMIG v3.4,25,Events,CE,CESTDY,Study Day of Start of Event,Num,,,,,Timing,Actual study day of start of the clinical event expressed in integer days relative to the sponsor-defined RFSTDTC in Demographics.,Perm
SDTMIG v3.4,26,Events,CE,CEENDY,Study Day of End of Event,Num,,,,,Timing,Actual study day of end of the clinical event expressed in integer days relative to the sponsor-defined RFSTDTC in Demographics.,Perm
SDTMIG v3.4,27,Events,CE,CESTRF,Start Relative to Reference Period,Char,C66728,,,,Timing,"Describes the start of the clinical event relative to the sponsor-defined reference period. The sponsor-defined reference period is a continuous period of time defined by a discrete starting point and a discrete ending point (represented by RFSTDTC and RFENDTC in Demographics). \n Not all values of the codelist are allowable for this variable. See Section 4.4.7, Use of Relative Timing Variables.",Perm
SDTMIG v3.4,28,Events,CE,CEENRF,End Relative to Reference Period,Char,C66728,,,,Timing,"Describes the end of the event relative to the sponsor-defined reference period. The sponsor-defined reference period is a continuous period of time defined by a discrete starting point and a discrete ending point (represented by RFSTDTC and RFENDTC in Demographics). \n Not all values of the codelist are allowable for this variable. See Section 4.4.7, Use of Relative Timing Variables.",Perm
SDTMIG v3.4,29,Events,CE,CESTRTPT,Start Relative to Reference Time Point,Char,C66728,,,,Timing,"Identifies the start of the observation as being before or after the reference time point defined by variable CESTTPT. \n Not all values of the codelist are allowable for this variable. See Section 4.4.7, Use of Relative Timing Variables.",Perm
SDTMIG v3.4,30,Events,CE,CESTTPT,Start Reference Time Point,Char,,,,,Timing,"Description or date/time in ISO 8601 character format of the sponsor-defined reference point referred to by --STRTPT. Examples: ""2003-12-15"", ""VISIT 1"".",Perm
SDTMIG v3.4,31,Events,CE,CEENRTPT,End Relative to Reference Time Point,Char,C66728,,,,Timing,"Identifies the end of the observation as being before or after the sponsor-defined reference time point defined by variable CEENTPT. \n Not all values of the codelist are allowable for this variable. See Section 4.4.7, Use of Relative Timing Variables.",Perm
SDTMIG v3.4,32,Events,CE,CEENTPT,End Reference Time Point,Char,,,,,Timing,"Description or date/time in ISO 8601 character format of the reference point referred to by CEENRTPT. Examples: ""2003-12-25"", ""VISIT 2"".",Perm
SDTMIG v3.4,1,Events,DS,STUDYID,Study Identifier,Char,,,,,Identifier,Unique identifier for a study.,Req
SDTMIG v3.4,2,Events,DS,DOMAIN,Domain Abbreviation,Char,,,,DS,Identifier,Two-character abbreviation for the domain.,Req
SDTMIG v3.4,3,Events,DS,USUBJID,Unique Subject Identifier,Char,,,,,Identifier,Identifier used to uniquely identify a subject across all studies for all applications or submissions involving the product.,Req
SDTMIG v3.4,4,Events,DS,DSSEQ,Sequence Number,Num,,,,,Identifier,Sequence number given to ensure uniqueness of subject records within a domain. May be any valid number.,Req
SDTMIG v3.4,5,Events,DS,DSGRPID,Group ID,Char,,,,,Identifier,Used to tie together a block of related records in a single domain for a subject.,Perm
SDTMIG v3.4,6,Events,DS,DSREFID,Reference ID,Char,,,,,Identifier,Internal or external identifier.,Perm
SDTMIG v3.4,7,Events,DS,DSSPID,Sponsor-Defined Identifier,Char,,,,,Identifier,Sponsor-defined reference number. May be preprinted on the CRF as an explicit line identifier or defined in the sponsor's operational database. Example: Line number on a Disposition page.,Perm
SDTMIG v3.4,8,Events,DS,DSTERM,Reported Term for the Disposition Event,Char,,,,,Topic,"Verbatim name of the event or protocol milestone. Some terms in DSTERM will match DSDECOD, but others, such as ""Subject moved"", will map to controlled terminology in DSDECOD, such as ""LOST TO FOLLOW-UP"".",Req
SDTMIG v3.4,9,Events,DS,DSDECOD,Standardized Disposition Term,Char,C66727; C114118; C150811,,,,Synonym Qualifier,"Controlled terminology for the name of disposition event or protocol milestone. Examples of protocol milestones: ""INFORMED CONSENT OBTAINED"", ""RANDOMIZED"". There are separate codelists used for DSDECOD where the choice depends on the value of DSCAT. Codelist ""NCOMPLT"" is used for disposition events, codelist ""PROTMLST"" is used for protocol milestones, and codelist ""OTHEVENT"" is used for other events.",Req
SDTMIG v3.4,10,Events,DS,DSCAT,Category for Disposition Event,Char,C74558,,,,Grouping Qualifier,Used to define a category of related records.,Exp
SDTMIG v3.4,11,Events,DS,DSSCAT,Subcategory for Disposition Event,Char,C170443,,,,Grouping Qualifier,"A further categorization of DSCAT (e.g., ""STUDY PARTICIPATION"", ""STUDY TREATMENT"" when DSCAT = ""DISPOSITION EVENT""). The variable may be subject to controlled terminology for other categories of disposition event records.",Perm
SDTMIG v3.4,12,Events,DS,EPOCH,Epoch,Char,C99079,,,,Timing,Epoch associated with the start date/time of the event.,Perm
SDTMIG v3.4,13,Events,DS,DSDTC,Date/Time of Collection,Char,,,ISO 8601 datetime or interval,,Timing,Collection date and time of the disposition observation represented in ISO 8601 character format.,Perm
SDTMIG v3.4,14,Events,DS,DSSTDTC,Start Date/Time of Disposition Event,Char,,,ISO 8601 datetime or interval,,Timing,Start date/time of the disposition event in ISO 8601 character format.,Exp
SDTMIG v3.4,15,Events,DS,DSDY,Study Day of Collection,Num,,,,,Timing,Study day of collection of event relative to the sponsor-defined RFSTDTC.,Perm
SDTMIG v3.4,16,Events,DS,DSSTDY,Study Day of Start of Disposition Event,Num,,,,,Timing,Study day of start of event relative to the sponsor-defined RFSTDTC.,Exp
SDTMIG v3.4,1,Events,DV,STUDYID,Study Identifier,Char,,,,,Identifier,Unique identifier for a study.,Req
SDTMIG v3.4,2,Events,DV,DOMAIN,Domain Abbreviation,Char,,,,DV,Identifier,Two-character abbreviation for the domain.,Req
SDTMIG v3.4,3,Events,DV,USUBJID,Unique Subject Identifier,Char,,,,,Identifier,Identifier used to uniquely identify a subject across all studies for all applications or submissions involving the product.,Req
SDTMIG v3.4,4,Events,DV,DVSEQ,Sequence Number,Num,,,,,Identifier,Sequence number given to ensure uniqueness of subject records within a domain. May be any valid number.,Req
SDTMIG v3.4,5,Events,DV,DVREFID,Reference ID,Char,,,,,Identifier,Internal or external identifier.,Perm
SDTMIG v3.4,6,Events,DV,DVSPID,Sponsor-Defined Identifier,Char,,,,,Identifier,Sponsor-defined reference number. May be preprinted on the CRF as an explicit line identifier or defined in the sponsor's operational database. Example: Line number on a CRF page.,Perm
SDTMIG v3.4,7,Events,DV,DVTERM,Protocol Deviation Term,Char,,,,,Topic,"Verbatim name of the protocol deviation criterion. Example: ""IVRS PROCESS DEVIATION - NO DOSE CALL PERFORMED"". DVTERM values will map to the controlled terminology in DVDECOD (e.g., ""TREATMENT DEVIATION"").",Req
SDTMIG v3.4,8,Events,DV,DVDECOD,Protocol Deviation Coded Term,Char,,,,,Synonym Qualifier,"Controlled terminology for the name of the protocol deviation. Examples: ""SUBJECT NOT WITHDRAWN AS PER PROTOCOL"", ""SELECTION CRITERIA NOT MET"", ""EXCLUDED CONCOMITANT MEDICATION"", ""TREATMENT DEVIATION"".",Perm
SDTMIG v3.4,9,Events,DV,DVCAT,Category for Protocol Deviation,Char,,,,,Grouping Qualifier,Category of the protocol deviation criterion.,Perm
SDTMIG v3.4,10,Events,DV,DVSCAT,Subcategory for Protocol Deviation,Char,,,,,Grouping Qualifier,A further categorization of the protocol deviation.,Perm
SDTMIG v3.4,11,Events,DV,TAETORD,Planned Order of Element within Arm,Num,,,,,Timing,Number that gives the planned order of the element within the arm.,Perm
SDTMIG v3.4,12,Events,DV,EPOCH,Epoch,Char,C99079,,,,Timing,"Epoch associated with the start date/time of the deviation. Examples: ""TREATMENT"", ""SCREENING"", ""FOLLOW-UP"".",Perm
SDTMIG v3.4,13,Events,DV,DVSTDTC,Start Date/Time of Deviation,Char,,,ISO 8601 datetime or interval,,Timing,Start date/time of deviation represented in ISO 8601 character format.,Perm
SDTMIG v3.4,14,Events,DV,DVENDTC,End Date/Time of Deviation,Char,,,ISO 8601 datetime or interval,,Timing,End date/time of deviation represented in ISO 8601 character format.,Perm
SDTMIG v3.4,15,Events,DV,DVSTDY,Study Day of Start of Deviation Event,Num,,,,,Timing,Study day of start of event relative to the sponsor-defined RFSTDTC.,Perm
SDTMIG v3.4,16,Events,DV,DVENDY,Study Day of End of Deviation Event,Num,,,,,Timing,Study day of end of event relative to the sponsor-defined RFSTDTC.,Perm
SDTMIG v3.4,1,Events,HO,STUDYID,Study Identifier,Char,,,,,Identifier,Unique identifier for a study.,Req
SDTMIG v3.4,2,Events,HO,DOMAIN,Domain Abbreviation,Char,,,,HO,Identifier,Two-character abbreviation for the domain.,Req
SDTMIG v3.4,3,Events,HO,USUBJID,Unique Subject Identifier,Char,,,,,Identifier,Identifier used to uniquely identify a subject across all studies for all applications or submissions involving the product.,Req
SDTMIG v3.4,4,Events,HO,HOSEQ,Sequence Number,Num,,,,,Identifier,Sequence number given to ensure uniqueness of subject records within a domain. May be any valid number.,Req
SDTMIG v3.4,5,Events,HO,HOGRPID,Group ID,Char,,,,,Identifier,Used to tie together a block of related records in a single domain for a subject.,Perm
SDTMIG v3.4,6,Events,HO,HOREFID,Reference ID,Char,,,,,Identifier,Internal or external healthcare encounter identifier.,Perm
SDTMIG v3.4,7,Events,HO,HOSPID,Sponsor-Defined Identifier,Char,,,,,Identifier,Sponsor-defined identifier. May be preprinted on the CRF as an explicit line identifier or defined in the sponsor's operational database. Example: Line number on a Healthcare Encounters CRF page.,Perm
SDTMIG v3.4,8,Events,HO,HOTERM,Healthcare Encounter Term,Char,,,,,Topic,Verbatim or preprinted CRF term for the healthcare encounter.,Req
SDTMIG v3.4,9,Events,HO,HODECOD,Dictionary-Derived Term,Char,C171444,,,,Synonym Qualifier,Dictionary or sponsor-defined derived text description of HOTERM or the modified topic variable (HOMODIFY).,Perm
SDTMIG v3.4,10,Events,HO,HOCAT,Category for Healthcare Encounter,Char,,,,,Grouping Qualifier,Used to define a category of topic-related values.,Perm
SDTMIG v3.4,11,Events,HO,HOSCAT,Subcategory for Healthcare Encounter,Char,,,,,Grouping Qualifier,A further categorization of HOCAT values.,Perm
SDTMIG v3.4,12,Events,HO,HOPRESP,Pre-Specified Healthcare Encounter,Char,C66742,,,,Variable Qualifier,"A value of ""Y"" indicates that this healthcare encounter event was prespecified on the CRF. Values are null for spontaneously reported events (i.e., those collected as free-text verbatim terms).",Perm
SDTMIG v3.4,13,Events,HO,HOOCCUR,Healthcare Encounter Occurrence,Char,C66742,,,,Record Qualifier,"Used when the occurrence of specific healthcare encounters is solicited, to indicate whether an encounter occurred. Values are null for spontaneously reported events.",Perm
SDTMIG v3.4,14,Events,HO,HOSTAT,Completion Status,Char,C66789,,,,Record Qualifier,The status indicates that the prespecified question was not answered.,Perm
SDTMIG v3.4,15,Events,HO,HOREASND,Reason Healthcare Encounter Not Done,Char,,,,,Record Qualifier,"Describes the reason data for a prespecified event were not collected. Used in conjunction with HOSTAT when value is ""NOT DONE"".",Perm
SDTMIG v3.4,16,Events,HO,TAETORD,Planned Order of Element within Arm,Num,,,,,Timing,Number that gives the planned order of the element within the arm.,Perm
SDTMIG v3.4,17,Events,HO,EPOCH,Epoch,Char,C99079,,,,Timing,"Epoch associated with the start date/time of the healthcare encounter. Examples: ""SCREENING"", ""TREATMENT"", ""FOLLOW-UP"".",Perm
SDTMIG v3.4,18,Events,HO,HODTC,Date/Time of Event Collection,Char,,,ISO 8601 datetime or interval,,Timing,Collection date and time of the healthcare encounter.,Perm
SDTMIG v3.4,19,Events,HO,HOSTDTC,Start Date/Time of Healthcare Encounter,Char,,,ISO 8601 datetime or interval,,Timing,"Start date/time of the healthcare encounter (e.g., date of admission).",Exp
SDTMIG v3.4,20,Events,HO,HOENDTC,End Date/Time of Healthcare Encounter,Char,,,ISO 8601 datetime or interval,,Timing,"End date/time of the healthcare encounter (e.g., date of discharge).",Perm
SDTMIG v3.4,21,Events,HO,HODY,Study Day of Event Collection,Num,,,,,Timing,Study day of event collection relative to the sponsor-defined RFSTDTC.,Perm
SDTMIG v3.4,22,Events,HO,HOSTDY,Study Day of Start of Encounter,Num,,,,,Timing,Study day of the start of the healthcare encounter relative to the sponsor-defined RFSTDTC.,Perm
SDTMIG v3.4,23,Events,HO,HOENDY,Study Day of End of Healthcare Encounter,Num,,,,,Timing,Study day of the end of the healthcare encounter relative to the sponsor-defined RFSTDTC.,Perm
SDTMIG v3.4,24,Events,HO,HODUR,Duration of Healthcare Encounter,Char,,,ISO 8601 duration,,Timing,"Collected duration of the healthcare encounter. Used only if collected on the CRF and not derived from the start and end date/times. Example: ""P1DT2H"" (for 1 day, 2 hours).",Perm
SDTMIG v3.4,25,Events,HO,HOSTRTPT,Start Relative to Reference Time Point,Char,C66728,,,,Timing,"Identifies the start of the observation as being before or after the sponsor-defined reference time point defined by variable --STTPT. \n Not all values of the codelist are allowable for this variable. See Section 4.4.7, Use of Relative Timing Variables.",Perm
SDTMIG v3.4,26,Events,HO,HOSTTPT,Start Reference Time Point,Char,,,,,Timing,"Description or date/time in ISO 8601 character format of the sponsor-defined reference point referred to by STRTPT. Examples: ""2003-12-15"", ""VISIT 1"".",Perm
SDTMIG v3.4,27,Events,HO,HOENRTPT,End Relative to Reference Time Point,Char,C66728,,,,Timing,"Identifies the end of the event as being before or after the reference time point defined by variable HOENTPT. \n Not all values of the codelist are allowable for this variable. See Section 4.4.7, Use of Relative Timing Variables.",Perm
SDTMIG v3.4,28,Events,HO,HOENTPT,End Reference Time Point,Char,,,,,Timing,"Description or date/time in ISO 8601 character format of the reference point referred to by HOENRTPT. Examples: ""2003-12-25"", ""VISIT 2"".",Perm
SDTMIG v3.4,1,Events,MH,STUDYID,Study Identifier,Char,,,,,Identifier,Unique identifier for a study.,Req
SDTMIG v3.4,2,Events,MH,DOMAIN,Domain Abbreviation,Char,,,,MH,Identifier,Two-character abbreviation for the domain.,Req
SDTMIG v3.4,3,Events,MH,USUBJID,Unique Subject Identifier,Char,,,,,Identifier,Identifier used to uniquely identify a subject across all studies for all applications or submissions involving the product.,Req
SDTMIG v3.4,4,Events,MH,MHSEQ,Sequence Number,Num,,,,,Identifier,Sequence number given to ensure uniqueness of subject records within a domain. May be any valid number.,Req
SDTMIG v3.4,5,Events,MH,MHGRPID,Group ID,Char,,,,,Identifier,Used to tie together a block of related records in a single domain for a subject.,Perm
SDTMIG v3.4,6,Events,MH,MHREFID,Reference ID,Char,,,,,Identifier,Internal or external medical history identifier.,Perm
SDTMIG v3.4,7,Events,MH,MHSPID,Sponsor-Defined Identifier,Char,,,,,Identifier,Sponsor-defined reference number. May be preprinted on the CRF as an explicit line identifier or defined in the sponsor's operational database. Example: Line number on a Medical History CRF page.,Perm
SDTMIG v3.4,8,Events,MH,MHTERM,Reported Term for the Medical History,Char,,,,,Topic,Verbatim or preprinted CRF term for the medical condition or event.,Req
SDTMIG v3.4,9,Events,MH,MHMODIFY,Modified Reported Term,Char,,,,,Synonym Qualifier,"If MHTERM is modified to facilitate coding, then MHMODIFY will contain the modified text.",Perm
SDTMIG v3.4,10,Events,MH,MHDECOD,Dictionary-Derived Term,Char,,,,,Synonym Qualifier,Dictionary-derived text description of MHTERM or MHMODIFY. Equivalent to the Preferred Term (PT in MedDRA). The sponsor is expected to provide the dictionary name and version used to map the terms utilizing the external codelist element in the Define-XML document.,Perm
SDTMIG v3.4,11,Events,MH,MHEVDTYP,Medical History Event Date Type,Char,C124301,,,,Variable Qualifier,"Specifies the aspect of the medical condition or event by which MHSTDTC and/or the MHENDTC is defined. Examples: ""DIAGNOSIS"", ""SYMPTOMS"", ""RELAPSE"", ""INFECTION"".",Perm
SDTMIG v3.4,12,Events,MH,MHCAT,Category for Medical History,Char,,,,,Grouping Qualifier,"Used to define a category of related records. Examples: ""CARDIAC"", ""GENERAL"".",Perm
SDTMIG v3.4,13,Events,MH,MHSCAT,Subcategory for Medical History,Char,,,,,Grouping Qualifier,A further categorization of the condition or event.,Perm
SDTMIG v3.4,14,Events,MH,MHPRESP,Medical History Event Pre-Specified,Char,C66742,,,,Variable Qualifier,"A value of ""Y"" indicates that this medical history event was prespecified on the CRF. Values are null for spontaneously reported events (i.e., those collected as free-text verbatim terms).",Perm
SDTMIG v3.4,15,Events,MH,MHOCCUR,Medical History Occurrence,Char,C66742,,,,Record Qualifier,"Used when the occurrence of specific medical history conditions is solicited, to indicate whether (""Y""/""N"") a medical condition (MHTERM) had ever occurred. Values are null for spontaneously reported events.",Perm
SDTMIG v3.4,16,Events,MH,MHSTAT,Completion Status,Char,C66789,,,,Record Qualifier,The status indicates that the prespecified question was not asked/answered.,Perm
SDTMIG v3.4,17,Events,MH,MHREASND,Reason Medical History Not Collected,Char,,,,,Record Qualifier,"Describes the reason why data for a prespecified condition was not collected. Used in conjunction with MHSTAT when value is ""NOT DONE"".",Perm
SDTMIG v3.4,18,Events,MH,MHBODSYS,Body System or Organ Class,Char,,,,,Record Qualifier,"Dictionary-derived. Body system or organ class that is involved in an event or measurement from a standard hierarchy (e.g., MedDRA). When using a multi-axial dictionary such as MedDRA, this should contain the SOC used for the sponsor's analyses and summary tables which may not necessarily be the primary SOC.",Perm
SDTMIG v3.4,19,Events,MH,TAETORD,Planned Order of Element within Arm,Num,,,,,Timing,Number that gives the planned order of the element within the arm for the element in which the assessment was made.,Perm
SDTMIG v3.4,20,Events,MH,EPOCH,Epoch,Char,C99079,,,,Timing,Epoch associated with the start date/time of the medical history event.,Perm
SDTMIG v3.4,21,Events,MH,MHDTC,Date/Time of History Collection,Char,,,ISO 8601 datetime or interval,,Timing,Collection date and time of the medical history observation represented in ISO 8601 character format.,Perm
SDTMIG v3.4,22,Events,MH,MHSTDTC,Start Date/Time of Medical History Event,Char,,,ISO 8601 datetime or interval,,Timing,Start date/time of the medical history event represented in ISO 8601 character format.,Perm
SDTMIG v3.4,23,Events,MH,MHENDTC,End Date/Time of Medical History Event,Char,,,ISO 8601 datetime or interval,,Timing,End date/time of the medical history event.,Perm
SDTMIG v3.4,24,Events,MH,MHDY,Study Day of History Collection,Num,,,,,Timing,"Study day of medical history collection, measured as integer day. Algorithm for calculations must be relative to the sponsor-defined RFSTDTC variable in Demographics. This formula should be consistent across the submission.",Perm
SDTMIG v3.4,25,Events,MH,MHENRF,End Relative to Reference Period,Char,C66728,,,,Timing,"Describes the end of the event relative to the sponsor-defined reference period. The sponsor-defined reference period is a continuous period of time defined by a discrete starting point and a discrete ending point (represented by RFSTDTC and RFENDTC in Demographics). \n Not all values of the codelist are allowable for this variable. See Section 4.4.7, Use of Relative Timing Variables.",Perm
SDTMIG v3.4,26,Events,MH,MHENRTPT,End Relative to Reference Time Point,Char,C66728,,,,Timing,"Identifies the end of the event as being before or after the reference time point defined by variable MHENTPT. \n Not all values of the codelist are allowable for this variable. See Section 4.4.7, Use of Relative Timing Variables.",Perm
SDTMIG v3.4,27,Events,MH,MHENTPT,End Reference Time Point,Char,,,,,Timing,"Description or date/time in ISO 8601 character format of the reference point referred to by MHENRTPT. Examples: ""2003-12-25"", ""VISIT 2"".",Perm
SDTMIG v3.4,1,Findings,BS,STUDYID,Study Identifier,Char,,,,,Identifier,Unique identifier for a study.,Req
SDTMIG v3.4,2,Findings,BS,DOMAIN,Domain Abbreviation,Char,,,,BS,Identifier,Two-character abbreviation for the domain.,Req
SDTMIG v3.4,3,Findings,BS,USUBJID,Unique Subject Identifier,Char,,,,,Identifier,Identifier used to uniquely identify a subject across all studies for all applications or submissions involving the product.,Req
SDTMIG v3.4,4,Findings,BS,SPDEVID,Sponsor Device Identifier,Char,,,,,Identifier,Sponsor-defined identifier for a device.,Perm
SDTMIG v3.4,5,Findings,BS,BSSEQ,Sequence Number,Num,,,,,Identifier,Sequence number given to ensure uniqueness within a dataset for a subject. May be any valid number (including decimals) and does not have to start at 1.,Req
SDTMIG v3.4,6,Findings,BS,BSGRPID,Group ID,Char,,,,,Identifier,"Optional group identifier, used to link together a block of related records within a subject in a domain.",Perm
SDTMIG v3.4,7,Findings,BS,BSREFID,Reference ID,Char,,,,,Identifier,Internal or external identifier such as lab specimen ID.,Exp
SDTMIG v3.4,8,Findings,BS,BSSPID,Sponsor-Defined Identifier,Char,,,,,Identifier,Sponsor-defined identifier.,Perm
SDTMIG v3.4,9,Findings,BS,BSTESTCD,Biospecimen Test Short Name,Char,C124300,,,,Topic,"Short character value for BSTEST used as a column name when converting a dataset from a vertical format to a horizontal format. The short value can be up to 8 characters. Examples: VOLUME, RIN.",Req
SDTMIG v3.4,10,Findings,BS,BSTEST,Biospecimen Test Name,Char,C124299,,,,Synonym Qualifier,"Long name for BSTESTCD. Examples: Volume, RNA Integrity Number.",Req
SDTMIG v3.4,11,Findings,BS,BSCAT,Category for Biospecimen Test,Char,,,,,Grouping Qualifier,"Used to define a category of topic-variable values. Example: MEASUREMENT, QUALITY.",Exp
SDTMIG v3.4,12,Findings,BS,BSSCAT,Subcategory for Biospecimen Test,Char,,,,,Grouping Qualifier,Used to define a further categorization of BSCAT values.,Perm
SDTMIG v3.4,13,Findings,BS,BSORRES,Result or Finding in Original Units,Char,,,,,Result Qualifier,Result of the measurement or finding as originally received or collected.,Exp
SDTMIG v3.4,14,Findings,BS,BSORRESU,Original Units,Char,C71620,,,,Variable Qualifier,"Unit for BSORRES. Examples: mg, mL.",Exp
SDTMIG v3.4,15,Findings,BS,BSSTRESC,Character Result/Finding in Std Format,Char,,,,,Result Qualifier,"Contains the result value for all findings, copied or derived from BSORRES in a standard format or standard units. BSSTRESC should store all results or findings in character format; if results are numeric, they should also be stored in numeric format in BSSTRESN.",Exp
SDTMIG v3.4,16,Findings,BS,BSSTRESN,Numeric Result/Finding in Standard Units,Num,,,,,Result Qualifier,Used for continuous or numeric results or findings in standard format; copied in numeric format from BSSTRESC. BSSTRESN should store all numeric test results or findings.,Exp
SDTMIG v3.4,17,Findings,BS,BSSTRESU,Standard Units,Char,C71620,,,,Variable Qualifier,Standardized unit used for BSSTRESC and BSSTRESN.,Exp
SDTMIG v3.4,18,Findings,BS,BSSTAT,Completion Status,Char,C66789,,,,Record Qualifier,"Used to indicate that a test was not done, or was attempted but did not generate a result. Should be null or have a value of NOT DONE.",Perm
SDTMIG v3.4,19,Findings,BS,BSREASND,Reason Test Not Done,Char,,,,,Record Qualifier,Reason not done. Used in conjunction with BSSTAT when value is NOT DONE.,Perm
SDTMIG v3.4,20,Findings,BS,BSNAM,Vendor Name,Char,,,,,Record Qualifier,"Name or identifier of the vendor (e.g., laboratory) that provided the test results.",Perm
SDTMIG v3.4,21,Findings,BS,BSSPEC,Specimen Type,Char,C78734; C111114,,,,Record Qualifier,"Defines the type of specimen used for a measurement. Examples: SERUM, PLASMA, URINE, SOFT TISSUE.",Perm
SDTMIG v3.4,22,Findings,BS,BSANTREG,Anatomical Region of Specimen,Char,,,,,Variable Qualifier,"Defines the specific anatomical or biological region of a tissue, organ specimen or the region from which the specimen is obtained, as defined in the protocol, such as a section or part of what is described in the BSSPEC variable. Examples: CORTEX, MEDULLA, MUCOSA.",Perm
SDTMIG v3.4,23,Findings,BS,BSSPCCND,Specimen Condition,Char,C78733,,,,Record Qualifier,"Defines the condition of the specimen. Examples: HEMOLYZED, ICTERIC, LIPEMIC.",Perm
SDTMIG v3.4,24,Findings,BS,BSMETHOD,Method of Test or Examination,Char,C85492,,,,Record Qualifier,"Method of the test or examination. Examples: SPECTROPHOTOMETRY, ELECTROPHORESIS.",Perm
SDTMIG v3.4,25,Findings,BS,BSBLFL,Baseline Flag,Char,C66742,,,,Record Qualifier,Indicator used to identify a baseline value.,Perm
SDTMIG v3.4,26,Findings,BS,VISITNUM,Visit Number,Num,,,,,Timing,"Clinical encounter number. Numeric version of VISIT, used for sorting.",Exp
SDTMIG v3.4,27,Findings,BS,VISIT,Visit Name,Char,,,,,Timing,Protocol-defined description of clinical encounter.,Perm
SDTMIG v3.4,28,Findings,BS,VISITDY,Planned Study Day of Visit,Num,,,,,Timing,Planned study day of VISIT. Should be an integer.,Perm
SDTMIG v3.4,29,Findings,BS,BSDTC,Date/Time of Specimen Collection,Char,,,ISO 8601 datetime or interval,,Timing,Date and time of specimen collection.,Exp
SDTMIG v3.4,30,Findings,BS,BSDY,Study Day of Specimen Collection,Num,,,,,Timing,Study day of specimen collection relative to the sponsor-defined RFSTDTC.,Perm
SDTMIG v3.4,31,Findings,BS,BSTPT,Planned Time Point Name,Char,,,,,Timing,"Text description of time when a measurement or observation should be taken as defined in the protocol. This may be represented as an elapsed time relative to a fixed reference point, such as time of last dose. See BSTPTNUM and BSTPTREF.",Perm
SDTMIG v3.4,32,Findings,BS,BSTPTNUM,Planned Time Point Number,Num,,,,,Timing,Numerical version of BSTPT used in sorting.,Perm
SDTMIG v3.4,33,Findings,BS,BSELTM,Planned Elapsed Time from Time Point Ref,Char,,,ISO 8601 duration,,Timing,"Elapsed time relative to a planned fixed reference (BSTPTREF). This variable is useful where there are repetitive measures. Not a clock time or a date time variable, but an interval, represented as ISO duration.",Perm
SDTMIG v3.4,34,Findings,BS,BSTPTREF,Time Point Reference,Char,,,,,Timing,"Name of the fixed reference point referred to by BSELTM, BSTPTNUM, and BSTPT. Examples: PREVIOUS DOSE, PREVIOUS MEAL.",Perm
SDTMIG v3.4,35,Findings,BS,BSRFTDTC,Date/Time of Reference Time Point,Char,,,ISO 8601 datetime or interval,,Timing,Date/time for a fixed reference time point defined by BSTPTREF.,Perm
SDTMIG v3.4,1,Findings,CP,STUDYID,Study Identifier,Char,,,,,Identifier,Unique identifier for a study.,Req
SDTMIG v3.4,2,Findings,CP,DOMAIN,Domain Abbreviation,Char,,,,CP,Identifier,Two-character abbreviation for the domain.,Req
SDTMIG v3.4,3,Findings,CP,USUBJID,Unique Subject Identifier,Char,,,,,Identifier,Identifier used to uniquely identify a subject across all studies for all applications or submissions involving the product.,Req
SDTMIG v3.4,4,Findings,CP,CPSEQ,Sequence Number,Num,,,,,Identifier,Sequence number to ensure uniqueness of subject records within a domain. May be any valid number.,Req
SDTMIG v3.4,5,Findings,CP,CPGRPID,Group ID,Char,,,,,Identifier,Used to tie together a block of related records in a single domain for a subject.,Perm
SDTMIG v3.4,6,Findings,CP,CPREFID,Reference ID,Char,,,,,Identifier,Internal or external specimen identifier.,Perm
SDTMIG v3.4,7,Findings,CP,CPSPID,Sponsor-Defined Identifier,Char,,,,,Identifier,Sponsor-defined reference number. May be preprinted on the CRF as an explicit line identifier or defined in the sponsor's operational database. Example: Line number on the lab page.,Perm
SDTMIG v3.4,8,Findings,CP,CPLNKID,Link ID,Char,,,,,Identifier,Identifier used to link related records across domains. This may be a one-to-one or a one-to-many relationship.,Perm
SDTMIG v3.4,9,Findings,CP,CPLNKGRP,Link Group ID,Char,,,,,Identifier,Identifier used to link related records across domains. This will usually be a many-to-one relationship.,Perm
SDTMIG v3.4,10,Findings,CP,CPTESTCD,Test or Examination Short Name,Char,C181173,,,,Topic,"Short name of the measurement, test, or examination described in CPTEST. It can be used as a column name when converting a dataset from a vertical to a horizontal format. The value in CPTESTCD cannot be longer than 8 characters, nor can it start with a number (e.g., ""1TEST"" is not valid). CPTESTCD cannot contain characters other than letters, numbers, or underscores. Examples: ""MONO"", ""MNS"".",Req
SDTMIG v3.4,11,Findings,CP,CPTEST,"Name of Measurement, Test or Examination",Char,C181174,,,,Synonym Qualifier,"Long name for CPTESTCD. For cell phenotyping, the name (often abbreviated) of the cell population, as it is generally accepted by the scientific community, is populated (rather than a colloquial designation based on a primary marker, e.g., TLym Help rather than CD4). When the test is for a sublineage which can only be identified by specifying additional markers (i.e., has not been given a name) or which is further restricted to a subpopulation based on a particular cell state (e.g., activated, proliferating, apoptotic), the Sublineage Marker String (CPSBMRKS), Cell State (CPCELSTA), and Cell State Marker String (CPCSMRKS) variables are additionally populated and the value in CPTEST is suffixed with ""Sub"" to denote that it is a subset of the population identified in CPTEST (e.g., Monocytes Sub). \n The value in CPTEST cannot be longer than 40 characters.",Req
SDTMIG v3.4,12,Findings,CP,CPSBMRKS,Sublineage Marker String,Char,,,,,Variable Qualifier,"Used to further subset the cell population identified in CPTEST based on the use of additional marker(s) that define a sublineage. The value in CPSBMRKS is used in combination with values in CPTEST and CPCELSTA to fully describe the cell population being measured. As such, it is an essential component of the full test name. \n For example, three unnamed sublineages of monocytes have been identified as: CCR2+CD16-, CCR2-CD16+, and CCR2+CD16+. Whereas the entire monocyte cell population can be defined as CD14+ cells, the additional CCR2 and CD16 markers are used to differentiate one sublineage from another. As none of these sublineages have been given names, they are only known by the CCR2 and CD16 marker combinations. By associating the CPTEST value of ""Monocytes Sub"" with, for example, a value of ""CCR2+CD16-"" in CPSBMRKS, the full test is defined to be the CCR2+CD16- monocyte subpopulation.",Perm
SDTMIG v3.4,13,Findings,CP,CPCELSTA,Cell State,Char,C181172,,,,Variable Qualifier,"A textual description of a subset of the cell population identified in CPTEST based on a particular functional and/or biological state (e.g., ""ACTIVATED"", ""PROLIFERATING"", ""SENESCENT""). When populated, the values in CPCELSTA and CPSMRKS, in combination with the values in CPTEST and CPSBMRKS, fully describe the cell population being measured.",Perm
SDTMIG v3.4,14,Findings,CP,CPCSMRKS,Cell State Marker String,Char,,,,,Variable Qualifier,"Identifies the marker(s) or indicator(s) used to define the cell state (i.e., the value in CPCELSTA). \n For example, when Ki67 expression is used to determine that a cell population is in a proliferating state (i.e., CPCELSTA value=""PROLIFERATING""), the value ""Ki67+"" in CPCSMRKS indicates that positive expression of Ki67 was used to define the population as proliferating. Similarly, a value of ""Ki67-"" in CPCSMRKS would indicate that lack of expression of Ki67 defined the ""NON-PROLIFERATING"" cell state in CPCELSTA. The CPCSMRKS value is useful for quickly determining which marker(s) were used to classify (i.e., operationally define) a cell population based on a functional/biological state.",Perm
SDTMIG v3.4,15,Findings,CP,CPTSTCND,Test Condition,Char,C181175,,,,Variable Qualifier,"Identifies any planned condition imposed by the assay system on the specimen at the time the test is performed. --TSTCND is generally used to distinguish between two or more records where the same assay is performed under varying (as opposed to fixed) conditions, usually for the purpose of making a comparison. For example, when the same assay (identified in --TEST) is performed under stimulated and non-stimulated conditions, the --TSTCND variable is used distinguish between the records.",Perm
SDTMIG v3.4,16,Findings,CP,CPCNDAGT,Test Condition Agent,Char,,,,,Record Qualifier,"The textual description of the agent, if applicable, used to impose the condition identified in CPTSTCND. For example, records might be produced for the same assay run under stimulating (CPTSTCND value = ""STIMULATED"") conditions produced by different stimulating agents (e.g., phorbol myristate acetate, concanavalin A, PHA-P, TNF-alpha, Ionomycin, candida antigen).",Perm
SDTMIG v3.4,17,Findings,CP,CPBDAGNT,Binding Agent,Char,,,,,Record Qualifier,"The textual description of the agent that is binding to the entity in the CPTEST variable. The CPBDAGNT variable is used to indicate that there is a binding relationship between the entities in the CPTEST and CPBDAGNT variables, regardless of direction. \n The binding agent may be, but is not limited to, a test article; a portion of a test article; a substance related to a test article; an endogenous molecule; an allergen; an infectious agent; or a reagent (e.g., primary antibody) that confers the binding specificity for the measurement defined in CPTEST when it is needed to uniquely identify the test.",Perm
SDTMIG v3.4,18,Findings,CP,CPABCLID,Antibody Clone Identifier,Char,,,,,Record Qualifier,"Identifies the antibody clone (e.g., supplier-provided catalog name) used to confer specificity for the binding agent specified in CPBDAGNT.",Perm
SDTMIG v3.4,19,Findings,CP,CPMRKSTR,Marker String,Char,,,,,Record Qualifier,"The text string identifying the full set of markers/indicators used by the laboratory to operationally define the complete test based on the combination of CPTEST, CPSBMRKS, and CPCELSTA. Because laboratories often use different markers/indicators to identify a cell population, the relationship between a named cell population in CPTEST (as combined with CPSBMRKS and CPCELSTA values) and the set of markers used to identify that population is many-to-one. To ensure nuances important for accurately interpreting the data are accounted for and which arise from the use of different sets of markers, it is necessary to operationally define the test in terms of the complete set of markers/indicators used to perform that test.",Exp
SDTMIG v3.4,20,Findings,CP,CPGATE,Gate,Char,,,,,Record Qualifier,"The sponsor-defined name assigned to a gate. Gates are electronic (i.e., a device setting or software-defined) boundaries set by a user to virtually parse a specimen into discrete populations based on a set of defined characteristics (e.g., presence, absence, or intensity of expression of various markers; physical size; internal complexity or granularity). Gates are used to constrain data collection or analysis to a specific cell population or region of interest within the specimen.",Perm
SDTMIG v3.4,21,Findings,CP,CPGATDEF,Gate Definition,Char,,,,,Record Qualifier,"The text string identifying the set of parameters and the order in which they are applied to define the gating strategy. In practice, a series of 2-dimensional sub-gates based on different cell characteristics (i.e., markers/indicators/physical properties) are most often combined until the cell population of interest is sufficiently resolved (i.e., electronically isolated) from other cell populations contained within the specimen. \n For complex analyses, differences in gating strategies can produce subtle differences in results obtained for a test. To ensure nuances important for accurately interpreting the data are accounted for and which arise from the use of different gating strategies, it is often necessary to qualify the test in terms of the gating strategy. For some purposes, however, and at the discretion of the sponsor, only the ultimate or penultimate gate is identified. When specifying the gating strategy in CPGATDEF, each sub-gate should be listed in the order it was applied and separated from the next sub-gate using the pipe/vertical line (""|"") character.",Perm
SDTMIG v3.4,22,Findings,CP,CPSPTSTD,Sponsor Test Description,Char,,,,,Record Qualifier,"Sponsor's description of a test. The variable is intended to contain highly structured test description metadata used by a sponsor to unambiguously define (label) a test. Such values generally reside in a sponsor/laboratory test metadata repository. CPSPTSTD is not intended for unstructured (spontaneous) free text. \n An example of appropriate usage is when it is necessary to include identifying information for a target cell population on which a test is conducted when the target population is not part of the test name, e.g., tests for quantitative expression of a particular marker on a specific cell population.",Perm
SDTMIG v3.4,23,Findings,CP,CPCAT,Category,Char,C181171,,,,Grouping Qualifier,"Used to define a category of topic-variable values across subjects. Examples: ""IMMUNOPHENOTYPING"", ""CELL FUNCTION"", ""TARGET ENGAGEMENT"".",Perm
SDTMIG v3.4,24,Findings,CP,CPSCAT,Subcategory,Char,,,,,Grouping Qualifier,A further categorization of CPCAT.,Perm
SDTMIG v3.4,25,Findings,CP,CPTSTPNL,Test Panel,Char,,,,,Grouping Qualifier,Sponsor-defined textual description used to group tests run together as part of a test panel. Can be used with --GRPID to ensure that relationships between associated tests are accurately identified.,Perm
SDTMIG v3.4,26,Findings,CP,CPORRES,Result or Finding in Original Units,Char,,,,,Result Qualifier,Result of the measurement or finding as originally received or collected.,Exp
SDTMIG v3.4,27,Findings,CP,CPORRESU,Original Units,Char,C71620,,,,Variable Qualifier,"Original units in which the data were collected. The unit for CPORRES. Examples: ""10^6/L"", ""%"", ""MESF"".",Perm
SDTMIG v3.4,28,Findings,CP,CPRESSCL,Result Scale,Char,C177910,,,,Record Qualifier,"Classifies the scale of the original result value with respect to whether the result is quantitative, ordinal, nominal, or narrative.",Perm
SDTMIG v3.4,29,Findings,CP,CPRESTYP,Result Type,Char,C179588,,,,Record Qualifier,"Classifies the kind of result (i.e., property type) originally reported for the test. Examples: ""NUMBER CONCENTRATION"", ""NUMBER FRACTION"", ""RATIO"".",Perm
SDTMIG v3.4,30,Findings,CP,CPCOLSRT,Collected Summary Result Type,Char,C177908,,,,Record Qualifier,"Used to indicate the type of collected summary result. This includes source summary results collected on a CRF or provided by an external vendor (e.g., central lab). If the summary result is derived using individual source data records, this summary result should be represented in ADaM. If a sponsor has both a collected summary result and a derived summary result, the collected summary result should be represented in SDTM and the derived summary result should be represented in ADaM.",Perm
SDTMIG v3.4,31,Findings,CP,CPORNRLO,Reference Range Lower Limit in Orig Unit,Char,,,,,Variable Qualifier,Lower end of reference range for continuous measurement in original units. Should be populated only for continuous results.,Perm
SDTMIG v3.4,32,Findings,CP,CPORNRHI,Reference Range Upper Limit in Orig Unit,Char,,,,,Variable Qualifier,Upper end of reference range for continuous measurement in original units. Should be populated only for continuous results.,Perm
SDTMIG v3.4,33,Findings,CP,CPSTRESC,Result or Finding in Standard Format,Char,,,,,Result Qualifier,"Contains the result value for all findings, copied or derived from CPORRES in a standard format or in standard units. CPSTRESC should store all results or findings in character format; if results are numeric, they should also be stored in numeric format in CPSTRESN.",Exp
SDTMIG v3.4,34,Findings,CP,CPSTRESN,Numeric Result/Finding in Standard Units,Num,,,,,Result Qualifier,Used for continuous or numeric results or findings in standard format; copied in numeric format from CPSTRESC. CPSTRESN should store all numeric test results or findings.,Perm
SDTMIG v3.4,35,Findings,CP,CPSTRESU,Standard Units,Char,C71620,,,,Variable Qualifier,Standardized unit used for CPSTRESC or CPSTRESN.,Perm
SDTMIG v3.4,36,Findings,CP,CPSTNRLO,Reference Range Lower Limit-Std Units,Num,,,,,Variable Qualifier,Lower end of reference range for continuous measurements for CPSTRESC/CPSTRESN in standardized units. Should be populated only for continuous results.,Perm
SDTMIG v3.4,37,Findings,CP,CPSTNRHI,Reference Range Upper Limit-Std Units,Num,,,,,Variable Qualifier,Upper end of reference range for continuous measurements in standardized units. Should be populated only for continuous results.,Perm
SDTMIG v3.4,38,Findings,CP,CPNRIND,Reference Range Indicator,Char,C78736,,,,Variable Qualifier,"Indicates where the value falls with respect to reference range defined by CPORNRLO and CPORNRHI, CPSTNRLO and CPSTNRHI, or by CPSTNRC. Examples: ""NORMAL"", ""ABNORMAL"", ""HIGH"", ""LOW"". Sponsors should specify in the study metadata (Comments column in the Define-XML document) whether CPNRIND refers to the original or standard reference ranges and results. CPNRIND should not be used to indicate clinical significance.",Perm
SDTMIG v3.4,39,Findings,CP,CPSTAT,Completion Status,Char,C66789,,,,Record Qualifier,Used to indicate that the test was not performed or that it was attempted but did not generate a result. Should be null if a result exists in CPORRES.,Perm
SDTMIG v3.4,40,Findings,CP,CPREASND,Reason Not Done,Char,,,,,Record Qualifier,"Describes why a test was not performed, e.g., ""BROKEN EQUIPMENT"", ""SUBJECT REFUSED"", ""SPECIMEN LOST"". Used in conjunction with CPSTAT when value is ""NOT DONE"".",Perm
SDTMIG v3.4,41,Findings,CP,CPNAM,Vendor Name,Char,,,,,Record Qualifier,The name or identifier of the laboratory that performed the test.,Perm
SDTMIG v3.4,42,Findings,CP,CPLOINC,LOINC Code,Char,,,LOINC,,Synonym Qualifier,Code for the test from the LOINC code system. The sponsor is expected to provide the dictionary name and version used to map the terms utilizing the Define-XML external codelist attributes.,Perm
SDTMIG v3.4,43,Findings,CP,CPSPEC,Specimen Type,Char,C78734,,,,Record Qualifier,"Defines the type of specimen used for a measurement. Examples: ""BLOOD"", ""BONE MARROW"".",Perm
SDTMIG v3.4,44,Findings,CP,CPSPCCND,Specimen Condition,Char,C78733,,,,Record Qualifier,"The physical state or quality of a specimen for an assessment. Example: ""CLOTTED"".",Perm
SDTMIG v3.4,45,Findings,CP,CPMETHOD,Method of Test or Examination,Char,C85492,,,,Record Qualifier,"Method of the test or examination. Example: ""FLOW CYTOMETRY"".",Perm
SDTMIG v3.4,46,Findings,CP,CPANMETH,Analysis Method,Char,,,,,Record Qualifier,Analysis method applied to obtain a summarized result. Analysis method describes the method of secondary processing applied to a complex observation result.,Perm
SDTMIG v3.4,47,Findings,CP,CPLOBXFL,Last Observation Before Exposure Flag,Char,C66742,,,,Record Qualifier,"Operationally-derived indicator used to identify the last non-missing value prior to RFXSTDTC. The value should be ""Y"" or null.",Perm
SDTMIG v3.4,48,Findings,CP,CPBLFL,Baseline Flag,Char,C66742,,,,Record Qualifier,"Indicator used to identify a baseline value. The value should be ""Y"" or null.",Perm
SDTMIG v3.4,49,Findings,CP,CPDRVFL,Derived Flag,Char,C66742,,,,Record Qualifier,"Used to indicate a derived record. The value should be ""Y"" or null. Records that represent the average of other records, or do not come from the CRF, or are not as originally received or collected are examples of records that might be derived for the submission datasets. If CPDRVFL = ""Y"", then CPORRES may be null, with CPSTRESC and (if numeric) CPSTRESN having the derived value.",Perm
SDTMIG v3.4,50,Findings,CP,CPCLSIG,"Clinically Significant, Collected",Char,C66742,,,,Record Qualifier,Used to indicate whether a collected observation is clinically significant based on judgement.,Perm
SDTMIG v3.4,51,Findings,CP,VISITNUM,Visit Number,Num,,,,,Timing,"Clinical encounter number. Numeric version of VISIT, used for sorting.",Perm
SDTMIG v3.4,52,Findings,CP,VISIT,Visit Name,Char,,,,,Timing,Protocol-defined description of clinical encounter. May be used in addition to VISITNUM and/or VISITDY.,Perm
SDTMIG v3.4,53,Findings,CP,VISITDY,Planned Study Day of Visit,Num,,,,,Timing,Planned study day of the visit based upon RFSTDTC in Demographics. Should be an integer.,Perm
SDTMIG v3.4,54,Findings,CP,TAETORD,Planned Order of Element within Arm,Num,,,,,Timing,Number that gives the planned order of the element within the arm.,Perm
SDTMIG v3.4,55,Findings,CP,EPOCH,Epoch,Char,C99079,,,,Timing,"Epoch associated with the start date/time of the observation, or the date/time of collection if start date/time is not collected.",Perm
SDTMIG v3.4,56,Findings,CP,CPDTC,Date/Time of Collection,Char,,,ISO 8601 datetime or interval,,Timing,Date/time of specimen collection represented in ISO 8601 character format.,Exp
SDTMIG v3.4,57,Findings,CP,CPDY,Study Day of Visit/Collection/Exam,Num,,,,,Timing,"Study day of specimen collection, measured in integer days. Algorithm for calculations must be relative to the sponsor-defined RFSTDTC value in Demographics.",Perm
SDTMIG v3.4,58,Findings,CP,CPTPT,Planned Time Point Name,Char,,,,,Timing,"Text description of time when a specimen is to be taken, as defined in the protocol. This may be represented as an elapsed time relative to a fixed reference point (i.e., to the value in CPTPTREF). Example: ""1 hour post"".",Perm
SDTMIG v3.4,59,Findings,CP,CPTPTNUM,Planned Time Point Number,Num,,,,,Timing,"Numerical version of CPTPT to aid in sorting. When CPTPT is represented as an elapsed time relative to a fixed reference point (i.e., to the value in CPTPTREF), the values in CPTPTNUM should be assigned in ascending order relative to the value in CPTPTREF. For example, records for time points where CPTPT = ""5 minutes post"", 1 hour post"", and ""4 hours post"" could be represented in CPTPTNUM as ""1"", ""2"", and ""3"", which maintains the order between CPTPT and CPTPTNUM with respect to the fixed time point reference in CPTPTREF.",Perm
SDTMIG v3.4,60,Findings,CP,CPELTM,Planned Elapsed Time from Time Point Ref,Char,,,ISO 8601 duration,,Timing,"Planned elapsed time relative to the planned fixed reference value in CPTPTREF, represented in ISO 8601 duration format. Examples: ""-PT15M"" to represent 15 minutes prior to the reference time point indicated by CPTPTREF, ""T8H"" to represent 8 hours after the reference time point represented by CPTPTREF.",Perm
SDTMIG v3.4,61,Findings,CP,CPTPTREF,Time Point Reference,Char,,,,,Timing,"Descriptive name of the fixed reference point referred to by CPTPT, CPTPTNUM, and CPELTM. Examples: ""PREVIOUS DOSE"", ""PREVIOUS MEAL"".",Perm
SDTMIG v3.4,62,Findings,CP,CPRFTDTC,Date/Time of Reference Time Point,Char,,,ISO 8601 datetime or interval,,Timing,Date/time for a fixed reference time point defined by CPTPTREF.,Perm
SDTMIG v3.4,1,Findings,CV,STUDYID,Study Identifier,Char,,,,,Identifier,Unique identifier for a study.,Req
SDTMIG v3.4,2,Findings,CV,DOMAIN,Domain Abbreviation,Char,,,,CV,Identifier,Two-character abbreviation for the domain.,Req
SDTMIG v3.4,3,Findings,CV,USUBJID,Unique Subject Identifier,Char,,,,,Identifier,Identifier used to uniquely identify a subject across all studies for all applications or submissions involving the product.,Req
SDTMIG v3.4,4,Findings,CV,CVSEQ,Sequence Number,Num,,,,,Identifier,Sequence number to ensure uniqueness of records within a dataset for a subject. May be any valid number (including decimals) and does not have to start at 1.,Req
SDTMIG v3.4,5,Findings,CV,CVGRPID,Group ID,Char,,,,,Identifier,"Optional group identifier, used to link together a block of related records within a subject in a domain.",Perm
SDTMIG v3.4,6,Findings,CV,CVREFID,Reference ID,Char,,,,,Identifier,Optional internal or external identifier.,Perm
SDTMIG v3.4,7,Findings,CV,CVSPID,Sponsor-Defined Identifier,Char,,,,,Identifier,Sponsor-defined identifier. Example: a preprinted line identifier on a CRF.,Perm
SDTMIG v3.4,8,Findings,CV,CVLNKID,Link ID,Char,,,,,Identifier,Identifier used to link related records across domains. This may be a one-to-one or a one-to-many relationship.,Perm
SDTMIG v3.4,9,Findings,CV,CVLNKGRP,Link Group,Char,,,,,Identifier,Identifier used to link related records across domains. This will usually be a many-to-one relationship.,Perm
SDTMIG v3.4,10,Findings,CV,CVTESTCD,Short Name of Cardiovascular Test,Char,C101847,,,,Topic,"Short name of the measurement, test, or examination described in CVTEST. It can be used as a column name when converting a dataset from a vertical to a horizontal format. The value in CVTESTCD cannot be longer than 8 characters, nor can it start with a number (e.g., ""1TEST"" would not be valid). CVTESTCD cannot contain characters other than letters, numbers, or underscores.",Req
SDTMIG v3.4,11,Findings,CV,CVTEST,Name of Cardiovascular Test,Char,C101846,,,,Synonym Qualifier,Long name For CVTESTCD. The value in CVTEST cannot be longer than 40 characters.,Req
SDTMIG v3.4,12,Findings,CV,CVCAT,Category for Cardiovascular Test,Char,,,,,Grouping Qualifier,Used to define a category of topic-variable values.,Perm
SDTMIG v3.4,13,Findings,CV,CVSCAT,Subcategory for Cardiovascular Test,Char,,,,,Grouping Qualifier,Used to define a further categorization of CVCAT values.,Perm
SDTMIG v3.4,14,Findings,CV,CVPOS,Position of Subject During Observation,Char,C71148,,,,Record Qualifier,"Position of the subject during a measurement or examination. Examples: ""SUPINE"", ""STANDING"", ""SITTING"".",Perm
SDTMIG v3.4,15,Findings,CV,CVORRES,Result or Finding in Original Units,Char,,,,,Result Qualifier,Result of the measurement or finding as originally received or collected.,Exp
SDTMIG v3.4,16,Findings,CV,CVORRESU,Original Units,Char,C71620,,,,Variable Qualifier,Original units in which the data were collected. Unit for CVORRES.,Perm
SDTMIG v3.4,17,Findings,CV,CVSTRESC,Character Result/Finding in Std Format,Char,,,,,Result Qualifier,"Contains the result value for all findings, copied or derived, from CVORRES in a standard format or in standard units. CVSTRESC should store all results or findings in character format; if results are numeric, they should also be stored in numeric format in CVSTRESN. For example, if various tests have results ""NONE"", ""NEG"", and ""NEGATIVE"" in CVORRES and these results effectively have the same meaning, they could be represented in standard format in CVSTRESC as ""NEGATIVE"".",Exp
SDTMIG v3.4,18,Findings,CV,CVSTRESN,Numeric Result/Finding in Standard Units,Num,,,,,Result Qualifier,Used for continuous or numeric results or findings in standard format; copied in numeric format from CVSTRESC. CVSTRESN should store all numeric test results or findings.,Perm
SDTMIG v3.4,19,Findings,CV,CVSTRESU,Standard Units,Char,C71620,,,,Variable Qualifier,Standardized units used for CVSTRESC and CVSTRESN.,Perm
SDTMIG v3.4,20,Findings,CV,CVSTAT,Completion Status,Char,C66789,,,,Record Qualifier,"Used to indicate that a question was not asked or a test was not done, or a test was attempted but did not generate a result. Should be null or have a value of ""NOT DONE"".",Perm
SDTMIG v3.4,21,Findings,CV,CVREASND,Reason Not Done,Char,,,,,Record Qualifier,"Describes why a measurement or test was not performed (e.g., ""BROKEN EQUIPMENT"", ""SUBJECT REFUSED""). Used in conjunction with CVSTAT when value is ""NOT DONE"".",Perm
SDTMIG v3.4,22,Findings,CV,CVLOC,Location Used for the Measurement,Char,C74456,,,,Record Qualifier,"Anatomical location of the subject relevant to the collection of the measurement. Examples: ""HEART"", ""LEFT VENTRICLE"".",Perm
SDTMIG v3.4,23,Findings,CV,CVLAT,Laterality,Char,C99073,,,,Variable Qualifier,"Qualifier for anatomical location or specimen further detailing laterality. Examples: ""RIGHT"", ""LEFT"", ""BILATERAL"", ""UNILATERAL"".",Perm
SDTMIG v3.4,24,Findings,CV,CVDIR,Directionality,Char,C99074,,,,Variable Qualifier,"Qualifier for anatomical location or specimen further detailing directionality. Examples: ""ANTERIOR"", ""LOWER"", ""PROXIMAL"".",Perm
SDTMIG v3.4,25,Findings,CV,CVMETHOD,Method of Test or Examination,Char,C85492,,,,Record Qualifier,Method used to create the result.,Perm
SDTMIG v3.4,26,Findings,CV,CVLOBXFL,Last Observation Before Exposure Flag,Char,C66742,,,,Record Qualifier,"Operationally-derived indicator used to identify the last non-missing value prior to RFXSTDTC. The value should be ""Y"" or null.",Exp
SDTMIG v3.4,27,Findings,CV,CVBLFL,Baseline Flag,Char,C66742,,,,Record Qualifier,"Indicator used to identify a baseline value. Should be ""Y"" or null. Note that CVBLFL is retained for backward compatibility. The authoritative baseline for statistical analysis is in an ADaM dataset.",Perm
SDTMIG v3.4,28,Findings,CV,CVDRVFL,Derived Flag,Char,C66742,,,,Record Qualifier,"Used to indicate a derived record (i.e., a record that represents the average of other records, such as a computed baseline). Should be ""Y"" or null.",Perm
SDTMIG v3.4,29,Findings,CV,CVEVAL,Evaluator,Char,C78735,,,,Record Qualifier,"Role of the person who provided the evaluation. Used only for results that are subjective (e.g., assigned by a person or a group). Examples: ""ADJUDICATION COMMITTEE"", "" INDEPENDENT ASSESSOR"", ""RADIOLOGIST"".",Perm
SDTMIG v3.4,30,Findings,CV,CVEVALID,Evaluator Identifier,Char,C96777,,,,Variable Qualifier,"Used to distinguish multiple evaluators with the same role recorded in CVEVAL. Examples: ""RADIOLOGIST1"" or ""RADIOLOGIST2"".",Perm
SDTMIG v3.4,31,Findings,CV,VISITNUM,Visit Number,Num,,,,,Timing,"Clinical encounter number. Numeric version of VISIT, used for sorting.",Exp
SDTMIG v3.4,32,Findings,CV,VISIT,Visit Name,Char,,,,,Timing,Protocol-defined description of clinical encounter. May be used in addition to VISITNUM and/or VISITDY.,Perm
SDTMIG v3.4,33,Findings,CV,VISITDY,Planned Study Day of Visit,Num,,,,,Timing,Planned study day of VISIT. Should be an integer.,Perm
SDTMIG v3.4,34,Findings,CV,TAETORD,Planned Order of Element within Arm,Num,,,,,Timing,Number that gives the planned order of the element within the arm for the element in which the assessment was made.,Perm
SDTMIG v3.4,35,Findings,CV,EPOCH,Epoch,Char,C99079,,,,Timing,Epoch associated with the date/time at which the assessment was made.,Perm
SDTMIG v3.4,36,Findings,CV,CVDTC,Date/Time of Test,Char,,,ISO 8601 datetime or interval,,Timing,Collection date and time of an observation.,Exp
SDTMIG v3.4,37,Findings,CV,CVDY,Study Day of Visit/Collection/Exam,Num,,,,,Timing,Actual study day of visit/collection/exam expressed in integer days relative to the sponsor-defined RFSTDTC in Demographics.,Perm
SDTMIG v3.4,38,Findings,CV,CVTPT,Planned Time Point Name,Char,,,,,Timing,"Text description of time when a measurement or observation should be taken, as defined in the protocol. This may be represented as an elapsed time relative to a fixed reference point, such as time of last dose. See CVTPTNUM and CVTPTREF.",Perm
SDTMIG v3.4,39,Findings,CV,CVTPTNUM,Planned Time Point Number,Num,,,,,Timing,Numeric version of planned time point used in sorting.,Perm
SDTMIG v3.4,40,Findings,CV,CVELTM,Planned Elapsed Time from Time Point Ref,Char,,,ISO 8601 duration,,Timing,"Planned elapsed time relative to a planned fixed reference (CVTPTREF). Examples: ""PREVIOUS DOSE"", ""PREVIOUS MEAL"". This variable is useful where there are repetitive measures. Not a clock time or a date/time variable, but an interval, represented as ISO duration.",Perm
SDTMIG v3.4,41,Findings,CV,CVTPTREF,Time Point Reference,Char,,,,,Timing,"Description of the fixed reference point referred to by CVELTM, CVTPTNUM, and CVTPT. Examples: ""PREVIOUS DOSE"", ""PREVIOUS MEAL"".",Perm
SDTMIG v3.4,42,Findings,CV,CVRFTDTC,Date/Time of Reference Time Point,Char,,,ISO 8601 datetime or interval,,Timing,Date/time for a fixed reference time point defined by CVTPTREF.,Perm
SDTMIG v3.4,1,Findings,DA,STUDYID,Study Identifier,Char,,,,,Identifier,Unique identifier for a study within the submission.,Req
SDTMIG v3.4,2,Findings,DA,DOMAIN,Domain Abbreviation,Char,,,,DA,Identifier,Two-character abbreviation for the domain.,Req
SDTMIG v3.4,3,Findings,DA,USUBJID,Unique Subject Identifier,Char,,,,,Identifier,Identifier used to uniquely identify a subject across all studies for all applications or submissions involving the product.,Req
SDTMIG v3.4,4,Findings,DA,DASEQ,Sequence Number,Num,,,,,Identifier,Sequence number given to ensure uniqueness of subject records within a domain. May be any valid number.,Req
SDTMIG v3.4,5,Findings,DA,DAGRPID,Group ID,Char,,,,,Identifier,Used to tie together a block of related records in a single domain for a subject.,Perm
SDTMIG v3.4,6,Findings,DA,DAREFID,Reference ID,Char,,,,,Identifier,"Optional internal or external identifier such as a code from the product packaging (e.g., bottle label, package label, kit label).",Perm
SDTMIG v3.4,7,Findings,DA,DASPID,Sponsor-Defined Identifier,Char,,,,,Identifier,"Sponsor-defined reference number. May be preprinted on the CRF as an explicit line identifier or defined in the sponsor's operational database. Examples: Line number on the Product Accountability CRF page, a code from the product packaging (e.g., bottle label, package label, kit label).",Perm
SDTMIG v3.4,8,Findings,DA,DALNKID,Link ID,Char,,,,,Identifier,Identifier used to link related records across domains. This may be a one-to-one or a one-to-many relationship.,Perm
SDTMIG v3.4,9,Findings,DA,DALNKGRP,Link Group ID,Char,,,,,Identifier,Identifier used to link related records across domains. This will usually be a many-to-one relationship.,Perm
SDTMIG v3.4,10,Findings,DA,DATESTCD,Short Name of Accountability Assessment,Char,C78732,,,,Topic,"Short character value for DATEST used as a column name when converting a dataset from a vertical format to a horizontal format. The short value can be up to 8 characters and cannot begin with a number or contain characters other than letters, numbers, or underscores. Examples: ""DISPAMT"", ""RETAMT"".",Req
SDTMIG v3.4,11,Findings,DA,DATEST,Name of Accountability Assessment,Char,C78731,,,,Synonym Qualifier,"Verbatim name corresponding to the topic variable of the test or examination used to obtain the product accountability assessment. The value in DATEST cannot be longer than 40 characters. Examples: ""Dispensed Amount"", ""Returned Amount"".",Req
SDTMIG v3.4,12,Findings,DA,DACAT,Category,Char,,,,,Grouping Qualifier,"Used to define a category of topic-variable values. Examples: ""STUDY MEDICATION"", ""RESCUE MEDICATION"".",Perm
SDTMIG v3.4,13,Findings,DA,DASCAT,Subcategory,Char,,,,,Grouping Qualifier,Used to define a further categorization level for a group of related records.,Perm
SDTMIG v3.4,14,Findings,DA,DAORRES,Result or Finding in Original Units,Char,,,,,Result Qualifier,Result of the product accountability assessment as originally received or collected.,Exp
SDTMIG v3.4,15,Findings,DA,DAORRESU,Original Units,Char,C71620,,,,Variable Qualifier,Unit for DAORRES.,Perm
SDTMIG v3.4,16,Findings,DA,DASTRESC,Result or Finding in Standard Format,Char,,,,,Result Qualifier,"Contains the result value for all product accountability assessments copied or derived from DAORRES, in a standard format or in standard units. DASTRESC should store all results or findings in character format; if results are numeric, they should also be stored in numeric format in DASTRESN.",Exp
SDTMIG v3.4,17,Findings,DA,DASTRESN,Numeric Result/Finding in Standard Units,Num,,,,,Result Qualifier,Used for continuous or numeric results or findings in standard format; copied in numeric format from DASTRESC. DASTRESN should store all numeric test results or findings.,Perm
SDTMIG v3.4,18,Findings,DA,DASTRESU,Standard Units,Char,C71620,,,,Variable Qualifier,Standardized units used for DASTRESC and DASTRESN.,Perm
SDTMIG v3.4,19,Findings,DA,DASTAT,Completion Status,Char,C66789,,,,Record Qualifier,"Used to indicate that a product accountability assessment was not done. Should be null or have a value of ""NOT DONE"".",Perm
SDTMIG v3.4,20,Findings,DA,DAREASND,Reason Not Done,Char,,,,,Record Qualifier,"Reason not done. Used in conjunction with DASTAT when value is ""NOT DONE"".",Perm
SDTMIG v3.4,21,Findings,DA,VISITNUM,Visit Number,Num,,,,,Timing,"Clinical encounter number. Numeric version of VISIT, used for sorting.",Exp
SDTMIG v3.4,22,Findings,DA,VISIT,Visit Name,Char,,,,,Timing,Protocol-defined description of a clinical encounter. May be used in addition to VISITNUM and/or VISITDY.,Perm
SDTMIG v3.4,23,Findings,DA,VISITDY,Planned Study Day of Visit,Num,,,,,Timing,"Planned study day of the visit, based upon RFSTDTC in Demographics.",Perm
SDTMIG v3.4,24,Findings,DA,TAETORD,Planned Order of Element within Arm,Num,,,,,Timing,"Number that gives the planned order of the element within the arm (see Section 7.2.1, Trial Arms).",Perm
SDTMIG v3.4,25,Findings,DA,EPOCH,Epoch,Char,C99079,,,,Timing,"Epoch associated with the start date/time of the observation, or the date/time of collection if start date/time is not collected.",Perm
SDTMIG v3.4,26,Findings,DA,DADTC,Date/Time of Collection,Char,,,ISO 8601 datetime or interval,,Timing,Date and time of the product accountability assessment represented in ISO 8601 character format.,Exp
SDTMIG v3.4,27,Findings,DA,DADY,Study Day of Visit/Collection/Exam,Num,,,,,Timing,"Study day of product accountability assessment, measured in integer days. Algorithm for calculations must be relative to the sponsor-defined RFSTDTC in Demographics.",Perm
SDTMIG v3.4,1,Findings,DD,STUDYID,Study Identifier,Char,,,,,Identifier,Unique identifier for a study.,Req
SDTMIG v3.4,2,Findings,DD,DOMAIN,Domain Abbreviation,Char,,,,DD,Identifier,Two-character abbreviation for the domain.,Req
SDTMIG v3.4,3,Findings,DD,USUBJID,Unique Subject Identifier,Char,,,,,Identifier,Identifier used to uniquely identify a subject across all studies for all applications or submissions involving the product.,Req
SDTMIG v3.4,4,Findings,DD,DDSEQ,Sequence Number,Num,,,,,Identifier,Sequence number given to ensure uniqueness of subject records within a domain. May be any valid number.,Req
SDTMIG v3.4,5,Findings,DD,DDTESTCD,Death Detail Assessment Short Name,Char,C116108,,,,Topic,"Short name of the measurement, test, or examination described in DDTEST. It can be used as a column name when converting a dataset from a vertical to a horizontal format. The value in DDTESTCD cannot be longer than 8 characters, nor can it start with a number (e.g., ""1TEST"" is not valid). DDTESTCD cannot contain characters other than letters, numbers, or underscores. Examples: ""PRCDTH"", ""SECDTH"".",Req
SDTMIG v3.4,6,Findings,DD,DDTEST,Death Detail Assessment Name,Char,C116107,,,,Synonym Qualifier,"Long name for DDTESTCD. The value in DDTEST cannot be longer than 40 characters. Examples: ""Primary Cause of Death"", ""Secondary Cause of Death"".",Req
SDTMIG v3.4,7,Findings,DD,DDORRES,Result or Finding as Collected,Char,,,,,Result Qualifier,"Result of the test defined in DDTEST, as originally received or collected.",Exp
SDTMIG v3.4,8,Findings,DD,DDSTRESC,Character Result/Finding in Std Format,Char,,,,,Result Qualifier,Contains the result or finding copied or derived from DDORRES in a standard format.,Exp
SDTMIG v3.4,9,Findings,DD,DDRESCAT,Result Category,Char,,,,,Variable Qualifier,"Used to categorize the result of a finding. Examples: ""TREATMENT RELATED"", ""NONTREATMENT RELATED"", ""UNDETERMINED"", ""ACCIDENTAL"".",Perm
SDTMIG v3.4,10,Findings,DD,DDEVAL,Evaluator,Char,C78735,,,,Record Qualifier,Role of the person who provided the evaluation.,Perm
SDTMIG v3.4,11,Findings,DD,DDDTC,Date/Time of Collection,Char,,,ISO 8601 datetime or interval,,Timing,Date/time of collection of the diagnosis or other death assessment data in ISO 8601 format. This is not necessarily the date of death.,Exp
SDTMIG v3.4,12,Findings,DD,DDDY,Study Day of Collection,Num,,,,,Timing,"Study day of the collection, in integer days. The algorithm for calculations must be relative to the sponsor-defined RFSTDTC variable in the Demographics (DM) domain.",Perm
SDTMIG v3.4,1,Findings,EG,STUDYID,Study Identifier,Char,,,,,Identifier,Unique identifier for a study.,Req
SDTMIG v3.4,2,Findings,EG,DOMAIN,Domain Abbreviation,Char,,,,EG,Identifier,Two-character abbreviation for the domain.,Req
SDTMIG v3.4,3,Findings,EG,USUBJID,Unique Subject Identifier,Char,,,,,Identifier,Identifier used to uniquely identify a subject across all studies for all applications or submissions involving the product.,Req
SDTMIG v3.4,4,Findings,EG,SPDEVID,Sponsor Device Identifier,Char,,,,,Identifier,Sponsor-defined identifier for a device.,Perm
SDTMIG v3.4,5,Findings,EG,EGSEQ,Sequence Number,Num,,,,,Identifier,Sequence number given to ensure uniqueness of subject records within a domain. May be any valid number.,Req
SDTMIG v3.4,6,Findings,EG,EGGRPID,Group ID,Char,,,,,Identifier,Used to tie together a block of related records in a single domain for a subject.,Perm
SDTMIG v3.4,7,Findings,EG,EGREFID,ECG Reference ID,Char,,,,,Identifier,"Internal or external ECG identifier. Example: ""334PT89"".",Perm
SDTMIG v3.4,8,Findings,EG,EGSPID,Sponsor-Defined Identifier,Char,,,,,Identifier,Sponsor-defined reference number. May be printed on the CRF as an explicit line identifier or defined in the sponsor's operational database. Example: Line number on the ECG page.,Perm
SDTMIG v3.4,9,Findings,EG,EGBEATNO,ECG Beat Number,Num,,,,,Identifier,A sequence number that identifies the beat within an ECG.,Perm
SDTMIG v3.4,10,Findings,EG,EGTESTCD,ECG Test or Examination Short Name,Char,C71153; C120523,,,,Topic,"Short name of the measurement, test, or examination described in EGTEST. It can be used as a column name when converting a dataset from a vertical to a horizontal format. The value in EGTESTCD cannot be longer than 8 characters, nor can it start with a number (e.g., ""1TEST"" is not valid). EGTESTCD cannot contain characters other than letters, numbers, or underscores. Examples: ""PRAG"", ""QRSAG"". \n Test codes are in 2 separate codelists, 1 for tests based on regular 10-second ECGs (EGTESTCD) and one 1 tests based on Holter monitoring (HETESTCD).",Req
SDTMIG v3.4,11,Findings,EG,EGTEST,ECG Test or Examination Name,Char,C71152; C120524,,,,Synonym Qualifier,"Verbatim name of the test or examination used to obtain the measurement or finding. The value in EGTEST cannot be longer than 40 characters. Examples: ""PR Interval, Aggregate"", ""QRS Duration, Aggregate"". \n Test names are in 2 separate codelists, 1 for tests based on regular 10-second ECGs (EGTEST) and 1 for tests based on Holter monitoring (HETEST).",Req
SDTMIG v3.4,12,Findings,EG,EGCAT,Category for ECG,Char,,,,,Grouping Qualifier,"Used to categorize ECG observations across subjects. Examples: ""MEASUREMENT"", ""FINDING"", ""INTERVAL"".",Perm
SDTMIG v3.4,13,Findings,EG,EGSCAT,Subcategory for ECG,Char,,,,,Grouping Qualifier,A further categorization of the ECG.,Perm
SDTMIG v3.4,14,Findings,EG,EGPOS,ECG Position of Subject,Char,C71148,,,,Record Qualifier,"Position of the subject during a measurement or examination. Examples: ""SUPINE"", ""STANDING"", ""SITTING"".",Perm
SDTMIG v3.4,15,Findings,EG,EGORRES,Result or Finding in Original Units,Char,,,,,Result Qualifier,"Result of the ECG measurement or finding as originally received or collected. Examples of expected values are ""62"" or ""0.151"" when the result is an interval or measurement, or ""ATRIAL FIBRILLATION"" or ""QT PROLONGATION"" when the result is a finding.",Exp
SDTMIG v3.4,16,Findings,EG,EGORRESU,Original Units,Char,C71620,,,,Variable Qualifier,"Original units in which the data were collected. The unit for EGORRES. Examples: ""sec"", ""msec"".",Perm
SDTMIG v3.4,17,Findings,EG,EGSTRESC,Character Result/Finding in Std Format,Char,C71150; C120522; C101834,,,,Result Qualifier,"Contains the result value for all findings copied or derived from EGORRES, in a standard format or standard units. EGSTRESC should store all results or findings in character format; if results are numeric, they should also be stored in numeric format in EGSTRESN. For example, if a test has results of 62 beats/min, then EGORRES = ""62"", EGORRESU = ""beats/min"", EGSTRESC = ""62"", EGSTRESN = 62, and EGSTRESU = ""beats/min"" . For other examples, see Original and Standardized Results. Additional examples of result data: ""SINUS BRADYCARDIA"", ""ATRIAL FLUTTER"", ""ATRIAL FIBRILLATION"". \n Test results are in 3 separate codelists: EGSTRESC for abnormal test results based on regular 10-second ECGs; HESTRESC for abnormal test results based on Holter monitoring, and NORMABNM for generic test results and/or responses to EGTEST = ""Interpretation"".",Exp
SDTMIG v3.4,18,Findings,EG,EGSTRESN,Numeric Result/Finding in Standard Units,Num,,,,,Result Qualifier,Used for continuous or numeric results or findings in standard format; copied in numeric format from EGSTRESC. EGSTRESN should store all numeric test results or findings.,Perm
SDTMIG v3.4,19,Findings,EG,EGSTRESU,Standard Units,Char,C71620,,,,Variable Qualifier,Standardized units used for EGSTRESC and EGSTRESN.,Perm
SDTMIG v3.4,20,Findings,EG,EGSTAT,Completion Status,Char,C66789,,,,Record Qualifier,"Used to indicate an ECG was not done, or an ECG measurement was not taken. Should be null if a result exists in EGORRES.",Perm
SDTMIG v3.4,21,Findings,EG,EGREASND,Reason ECG Not Done,Char,,,,,Record Qualifier,"Describes why a measurement or test was not performed. Examples: ""BROKEN EQUIPMENT"", ""SUBJECT REFUSED"". Used in conjunction with EGSTAT when value is ""NOT DONE"".",Perm
SDTMIG v3.4,22,Findings,EG,EGXFN,ECG External File Path,Char,,,,,Record Qualifier,File name and path for the external ECG waveform file.,Perm
SDTMIG v3.4,23,Findings,EG,EGNAM,Vendor Name,Char,,,,,Record Qualifier,Name or identifier of the laboratory or vendor providing the test results.,Perm
SDTMIG v3.4,24,Findings,EG,EGMETHOD,Method of Test or Examination,Char,C71151,,,,Record Qualifier,"Method of the ECG test. Example: ""12-LEAD STANDARD"".",Perm
SDTMIG v3.4,25,Findings,EG,EGLEAD,Lead Location Used for Measurement,Char,C90013,,,,Record Qualifier,"The lead used for the measurement. Examples: ""LEAD 1"", ""LEAD 2"", ""LEAD rV2"", ""LEAD V1"".",Perm
SDTMIG v3.4,26,Findings,EG,EGLOBXFL,Last Observation Before Exposure Flag,Char,C66742,,,,Record Qualifier,"Operationally derived indicator used to identify the last non-missing value prior to RFXSTDTC. The value should be ""Y"" or null.",Exp
SDTMIG v3.4,27,Findings,EG,EGBLFL,Baseline Flag,Char,C66742,,,,Record Qualifier,"Indicator used to identify a baseline value. Should be ""Y"" or null. Note that EGBLFL is retained for backward compatibility. The authoritative baseline for statistical analysis is in an ADaM dataset.",Perm
SDTMIG v3.4,28,Findings,EG,EGDRVFL,Derived Flag,Char,C66742,,,,Record Qualifier,"Used to indicate a derived record. The value should be ""Y"" or null. Records that represent the average of other records, or that do not come from the CRF, or are not as originally collected or received are examples of records that would be derived for the submission datasets. If EGDRVFL=""Y"", then EGORRES could be null, with EGSTRESC and EGSTRESN (if the result is numeric) having the derived value.",Perm
SDTMIG v3.4,29,Findings,EG,EGEVAL,Evaluator,Char,C78735,,,,Record Qualifier,"Role of the person who provided the evaluation. Used only for results that are subjective (e.g., assigned by a person or a group). Should be null for records that contain collected or derived data. Examples: ""INVESTIGATOR"", ""ADJUDICATION COMMITTEE"", ""VENDOR"".",Perm
SDTMIG v3.4,30,Findings,EG,EGEVALID,Evaluator Identifier,Char,C96777,,,,Variable Qualifier,"Used to distinguish multiple evaluators with the same role recorded in EGEVAL. Examples: ""RADIOLOGIST 1"" or ""RADIOLOGIST 2"".",Perm
SDTMIG v3.4,31,Findings,EG,EGCLSIG,"Clinically Significant, Collected",Char,C66742,,,,Record Qualifier,Used to indicate whether a collected observation is clinically significant based on judgment.,Perm
SDTMIG v3.4,32,Findings,EG,EGREPNUM,Repetition Number,Num,,,,,Record Qualifier,"The incidence number of a test that is repeated within a given timeframe for the same test. The level of granularity can vary (e.g., within a time point, within a visit). Examples: multiple measurements of blood pressure, multiple analyses of a sample.",Perm
SDTMIG v3.4,33,Findings,EG,VISITNUM,Visit Number,Num,,,,,Timing,"Clinical encounter number. Numeric version of VISIT, used for sorting.",Exp
SDTMIG v3.4,34,Findings,EG,VISIT,Visit Name,Char,,,,,Timing,Protocol-defined description of clinical encounter. May be used in addition to VISITNUM and/or VISITDY.,Perm
SDTMIG v3.4,35,Findings,EG,VISITDY,Planned Study Day of Visit,Num,,,,,Timing,Planned study day of the visit based upon RFSTDTC in Demographics.,Perm
SDTMIG v3.4,36,Findings,EG,TAETORD,Planned Order of Element within Arm,Num,,,,,Timing,Number that gives the planned order of the element within the arm for the element in which the assessment was made.,Perm
SDTMIG v3.4,37,Findings,EG,EPOCH,Epoch,Char,C99079,,,,Timing,Epoch associated with the date/time at which the assessment was made.,Perm
SDTMIG v3.4,38,Findings,EG,EGDTC,Date/Time of ECG,Char,,,ISO 8601 datetime or interval,,Timing,Date/Time of ECG.,Exp
SDTMIG v3.4,39,Findings,EG,EGDY,Study Day of ECG,Num,,,,,Timing,"Study day of the ECG, measured as integer days. Algorithm for calculations must be relative to the sponsor-defined RFSTDTC variable in Demographics.",Perm
SDTMIG v3.4,40,Findings,EG,EGTPT,Planned Time Point Name,Char,,,,,Timing,"Text description of time when measurement should be taken. This may be represented as an elapsed time relative to a fixed reference point, such as time of last dose. See EGTPTNUM and EGTPTREF. Examples: ""Start"", ""5 min post"".",Perm
SDTMIG v3.4,41,Findings,EG,EGTPTNUM,Planned Time Point Number,Num,,,,,Timing,Numerical version of EGTPT to aid in sorting.,Perm
SDTMIG v3.4,42,Findings,EG,EGELTM,Planned Elapsed Time from Time Point Ref,Char,,,ISO 8601 duration,,Timing,"Planned elapsed time (in ISO 8601) relative to a fixed time point reference (EGTPTREF). Not a clock time or a date time variable. Represented as an ISO 8601 duration. Examples: ""-PT15M"" to represent the period of 15 minutes prior to the reference point indicated by EGTPTREF, ""PT8H"" to represent the period of 8 hours after the reference point indicated by EGTPTREF.",Perm
SDTMIG v3.4,43,Findings,EG,EGTPTREF,Time Point Reference,Char,,,,,Timing,"Name of the fixed reference point referred to by EGELTM, EGTPTNUM, and EGTPT. Examples: ""PREVIOUS DOSE"", ""PREVIOUS MEAL"".",Perm
SDTMIG v3.4,44,Findings,EG,EGRFTDTC,Date/Time of Reference Time Point,Char,,,ISO 8601 datetime or interval,,Timing,Date/time for a fixed reference time point defined by EGTPTREF.,Perm
SDTMIG v3.4,1,Findings,FT,STUDYID,Study Identifier,Char,,,,,Identifier,Unique identifier for a study.,Req
SDTMIG v3.4,2,Findings,FT,DOMAIN,Domain Abbreviation,Char,,,,FT,Identifier,Two-character abbreviation for the domain.,Req
SDTMIG v3.4,3,Findings,FT,USUBJID,Unique Subject Identifier,Char,,,,,Identifier,Identifier used to uniquely identify a subject across all studies for all applications or submissions involving the product.,Req
SDTMIG v3.4,4,Findings,FT,FTSEQ,Sequence Number,Num,,,,,Identifier,Sequence number to ensure uniqueness of records within a dataset for a subject. May be any valid number.,Req
SDTMIG v3.4,5,Findings,FT,FTGRPID,Group ID,Char,,,,,Identifier,"Optional group identifier, used to link together a block of related records within a subject in a domain.",Perm
SDTMIG v3.4,6,Findings,FT,FTREFID,Reference ID,Char,,,,,Identifier,Optional internal or external identifier.,Perm
SDTMIG v3.4,7,Findings,FT,FTSPID,Sponsor-Defined Identifier,Char,,,,,Identifier,Sponsor-defined identifier. May be preprinted on the CRF as an explicit line identifier or defined in the sponsor's operational database. Example: Line number on the Test page.,Perm
SDTMIG v3.4,8,Findings,FT,FTTESTCD,Short Name of Test,Char,,,,,Topic,"Short character value for FTTEST, which can be used as a column name when converting a dataset from a vertical format to a horizontal format. The value cannot be longer than 8 characters, nor can it start with a number (e.g., ""1TEST"" is not valid). FTTESTCD cannot contain characters other than letters, numbers, or underscores. \n Controlled terminology for FTTESTCD is published in separate codelists for each instrument. See https://www.cdisc.org/standards/terminology/controlled-terminology for values for FTTESTCD. Examples: ""W250101"", ""W25F0102"".",Req
SDTMIG v3.4,9,Findings,FT,FTTEST,Name of Test,Char,,,,,Synonym Qualifier,"Verbatim name of the question used to obtain the finding. The value in FTTEST cannot be longer than 40 characters. \n Controlled terminology for FTTEST is published in separate codelists for each instrument. See https://www.cdisc.org/standards/terminology/controlled-terminology for values for FTTEST. Examples: ""W2501-25 Foot Walk Time"", ""W25F-More Than Two Attempts"".",Req
SDTMIG v3.4,10,Findings,FT,FTCAT,Category,Char,C115304,,,,Grouping Qualifier,Used to specify the functional test in which the functional test question identified by FTTEST and FTTESTCD was included.,Req
SDTMIG v3.4,11,Findings,FT,FTSCAT,Subcategory,Char,,,,,Grouping Qualifier,Used to define a further categorization of FTCAT values.,Perm
SDTMIG v3.4,12,Findings,FT,FTPOS,Position of Subject During Observation,Char,C71148,,,,Record Qualifier,"Position of the subject during the test. Examples: ""SUPINE"", ""STANDING"", ""SITTING"".",Perm
SDTMIG v3.4,13,Findings,FT,FTORRES,Result or Finding in Original Units,Char,,,,,Result Qualifier,Result of the measurement or finding as originally received or collected.,Exp
SDTMIG v3.4,14,Findings,FT,FTORRESU,Original Units,Char,C71620,,,,Variable Qualifier,Original units in which the data were collected. Unit for FTORRES.,Perm
SDTMIG v3.4,15,Findings,FT,FTSTRESC,Result or Finding in Standard Format,Char,,,,,Result Qualifier,"Contains the result value for all findings, copied or derived from FTORRES in a standard format or in standard units. FTSTRESC should store all results or findings in character format; if results are numeric, they should also be stored in numeric format in FTSTRESN.",Exp
SDTMIG v3.4,16,Findings,FT,FTSTRESN,Numeric Result/Finding in Standard Units,Num,,,,,Result Qualifier,Used for continuous or numeric results or findings in standard format; copied in numeric format from FTSTRESC. FTSTRESN should store all numeric test results or findings.,Perm
SDTMIG v3.4,17,Findings,FT,FTSTRESU,Standard Units,Char,C71620,,,,Variable Qualifier,Standardized units used for FTSTRESC and FTSTRESN.,Perm
SDTMIG v3.4,18,Findings,FT,FTSTAT,Completion Status,Char,C66789,,,,Record Qualifier,"Used to indicate that a test was not done, or a test was attempted but did not generate a result. Should be null or have a value of ""NOT DONE"".",Perm
SDTMIG v3.4,19,Findings,FT,FTREASND,Reason Not Done,Char,,,,,Record Qualifier,"Describes why a test was not done, or a test was attempted but did not generate a result. Used in conjunction with FTSTAT when value is ""NOT DONE"".",Perm
SDTMIG v3.4,20,Findings,FT,FTXFN,External File Path,Char,,,,,Record Qualifier,File path to an external file.,Perm
SDTMIG v3.4,21,Findings,FT,FTNAM,Vendor Name,Char,,,,,Record Qualifier,Name or identifier of the vendor or laboratory that provided the test results.,Perm
SDTMIG v3.4,22,Findings,FT,FTMETHOD,Method of Test or Examination,Char,C158113,,,,Record Qualifier,Method of the test or examination.,Perm
SDTMIG v3.4,23,Findings,FT,FTLOBXFL,Last Observation Before Exposure Flag,Char,C66742,,,,Record Qualifier,"Operationally-derived indicator used to identify the last non-missing value prior to RFXSTDTC. The value should be ""Y"" or null.",Exp
SDTMIG v3.4,24,Findings,FT,FTBLFL,Baseline Flag,Char,C66742,,,,Record Qualifier,"A baseline defined by the sponsor (could be derived in the same manner as FTLOBXFL or ABLFL, but is not required to be). The value should be ""Y"" or null. Note that FTBLFL is retained for backward compatibility. The authoritative baseline flag for statistical analysis is in an ADaM dataset.",Perm
SDTMIG v3.4,25,Findings,FT,FTDRVFL,Derived Flag,Char,C66742,,,,Record Qualifier,"Used to indicate a derived record (e.g., a record that represents the average of other records such as a computed baseline). Should be ""Y"" or null.",Perm
SDTMIG v3.4,26,Findings,FT,FTREPNUM,Repetition Number,Num,,,,,Record Qualifier,"The incidence number of a test that is repeated within a given timeframe for the same test. The level of granularity can vary (e.g., within a time point, within a visit). Examples: multiple measurements of blood pressure, multiple analyses of a sample.",Perm
SDTMIG v3.4,27,Findings,FT,VISITNUM,Visit Number,Num,,,,,Timing,"Clinical encounter number. Numeric version of VISIT, used for sorting.",Exp
SDTMIG v3.4,28,Findings,FT,VISIT,Visit Name,Char,,,,,Timing,Protocol-defined description of a clinical encounter.,Perm
SDTMIG v3.4,29,Findings,FT,VISITDY,Planned Study Day of Visit,Num,,,,,Timing,Planned study day of VISIT based upon RFSTDTC in Demographics. Should be an integer.,Perm
SDTMIG v3.4,30,Findings,FT,TAETORD,Planned Order of Element within Arm,Num,,,,,Timing,Number that gives the planned order of the element within the arm for the element in which the assessment was made.,Perm
SDTMIG v3.4,31,Findings,FT,EPOCH,Epoch,Char,C99079,,,,Timing,Epoch associated with the observation date/time of the functional tests finding.,Perm
SDTMIG v3.4,32,Findings,FT,FTDTC,Date/Time of Test,Char,,,ISO 8601 datetime or interval,,Timing,Collection date and time of functional test.,Exp
SDTMIG v3.4,33,Findings,FT,FTDY,Study Day of Test,Num,,,,,Timing,Actual study day of test expressed in integer days relative to the sponsor-defined RFSTDTC in Demographics.,Perm
SDTMIG v3.4,34,Findings,FT,FTTPT,Planned Time Point Name,Char,,,,,Timing,"Text description of time when a measurement or observation should be taken, as defined in the protocol. This may be represented as an elapsed time relative to a fixed reference point, such as time of last dose. See FTTPTNUM and FTTPTREF.",Perm
SDTMIG v3.4,35,Findings,FT,FTTPTNUM,Planned Time Point Number,Num,,,,,Timing,Numeric version of planned time point used in sorting.,Perm
SDTMIG v3.4,36,Findings,FT,FTELTM,Planned Elapsed Time from Time Point Ref,Char,,,ISO 8601 duration,,Timing,"Planned elapsed time relative to a planned fixed reference (FTTPTREF). Not a clock time or a date/time variable, but an interval, represented as ISO duration.",Perm
SDTMIG v3.4,37,Findings,FT,FTTPTREF,Time Point Reference,Char,,,,,Timing,"Description of the fixed reference point referred to by FTELTM, FTTPTNUM, and FTTPT. Examples: ""PREVIOUS DOSE"", ""PREVIOUS MEAL"".",Perm
SDTMIG v3.4,38,Findings,FT,FTRFTDTC,Date/Time of Reference Time Point,Char,,,ISO 8601 datetime or interval,,Timing,Date/time for a fixed reference time point defined by FTTPTREF.,Perm
SDTMIG v3.4,1,Findings,GF,STUDYID,Study Identifier,Char,,,,,Identifier,Unique identifier for a study.,Req
SDTMIG v3.4,2,Findings,GF,DOMAIN,Domain Abbreviation,Char,,,,GF,Identifier,Two-character abbreviation for the domain.,Req
SDTMIG v3.4,3,Findings,GF,USUBJID,Unique Subject Identifier,Char,,,,,Identifier,Identifier used to uniquely identify a subject across all studies for all applications or submissions involving the product.,Req
SDTMIG v3.4,4,Findings,GF,SPDEVID,Sponsor Device Identifier,Char,,,,,Identifier,Sponsor-defined identifier for a device.,Perm
SDTMIG v3.4,5,Findings,GF,NHOID,Non-Host Organism Identifier,Char,,,,,Identifier,"Sponsor-defined identifier for a non-host organism which should only be used when the organism is the subject of the TEST. This variable should be populated with an intuitive name based on the identity of the non-host organism as reported by a lab (e.g., ""A/California/7/2009 (H1N1)""). It is not to be used as a qualifier of the result in the record on which it appears.",Perm
SDTMIG v3.4,6,Findings,GF,GFSEQ,Sequence Number,Num,,,,,Identifier,Sequence number to ensure uniqueness of records within a dataset for a subject. May be any valid number (including decimals) and does not have to start at 1.,Req
SDTMIG v3.4,7,Findings,GF,GFGRPID,Group ID,Char,,,,,Identifier,Used to link together a block of related records within a subject in a domain.,Perm
SDTMIG v3.4,8,Findings,GF,GFREFID,Reference ID,Char,,,,,Identifier,A unique identifier for the assayed genetic specimen.,Exp
SDTMIG v3.4,9,Findings,GF,GFSPID,Sponsor-Defined Identifier,Char,,,,,Identifier,Sponsor-defined identifier.,Perm
SDTMIG v3.4,10,Findings,GF,GFLNKID,Link ID,Char,,,,,Identifier,Identifier used to link related records across domains. This may be a one-to-one or a one-to-many relationship.,Perm
SDTMIG v3.4,11,Findings,GF,GFLNKGRP,Link Group ID,Char,,,,,Identifier,Identifier used to link related records across domains. This will usually be a many-to-one relationship.,Perm
SDTMIG v3.4,12,Findings,GF,GFTESTCD,Short Name of Genomic Measurement,Char,C181178,,,,Topic,"Short name of the measurement, test, or examination described in GFTEST. It can be used as a column name when converting a dataset from a vertical to a horizontal format. The value in GFTESTCD cannot be longer than 8 characters, nor can it start with a number (e.g., ""1TEST"" is not valid). GFTESTCD cannot contain characters other than letters, numbers, or underscores.",Req
SDTMIG v3.4,13,Findings,GF,GFTEST,Name of Genomic Measurement,Char,C181179,,,,Synonym Qualifier,Long name for GFTESTCD. The value in GFTEST cannot be longer than 40 characters.,Req
SDTMIG v3.4,14,Findings,GF,GFTSTDTL,"Measurement, Test, or Examination Detail",Char,C181180,,,,Variable Qualifier,Description of a reportable qualifying the assessment in GFTESTCD and GFTEST.,Perm
SDTMIG v3.4,15,Findings,GF,GFCAT,Category for Genomic Finding,Char,,,,,Grouping Qualifier,Used to define a category of topic-variable values.,Perm
SDTMIG v3.4,16,Findings,GF,GFSCAT,Subcategory for Genomic Finding,Char,,,,,Grouping Qualifier,Used to define a further categorization of GFCAT values.,Perm
SDTMIG v3.4,17,Findings,GF,GFORRES,Result or Finding in Original Units,Char,,,,,Result Qualifier,Result of the measurement or finding as originally received or collected.,Exp
SDTMIG v3.4,18,Findings,GF,GFORRESU,Original Units,Char,C71620,,,,Variable Qualifier,Unit for GFORRES.,Perm
SDTMIG v3.4,19,Findings,GF,GFORREF,Reference Result in Original Units,Char,,,,,Variable Qualifier,"Reference value for the result or finding as originally received or collected. GFORREF uses the same units as GFORRES, if applicable.",Perm
SDTMIG v3.4,20,Findings,GF,GFSTRESC,Result or Finding in Standard Format,Char,,,,,Result Qualifier,"Contains the result value for all findings, copied or derived from GFORRES, in a standard format or in standard units. GFSTRESC should store all results or findings in character format; if results are numeric, they should also be stored in numeric format in GFSTRESN.",Exp
SDTMIG v3.4,21,Findings,GF,GFSTRESN,Numeric Result/Finding in Standard Units,Num,,,,,Result Qualifier,Used for continuous or numeric results or findings in standard format; copied in numeric format from GFSTRESC. GFSTRESN should store all numeric test results or findings.,Perm
SDTMIG v3.4,22,Findings,GF,GFSTRESU,Standard Units,Char,C71620,,,,Variable Qualifier,"Standardized units used for GFSTRESC, GFSTRESN, GFSTREFC, and GFSTREFN.",Perm
SDTMIG v3.4,23,Findings,GF,GFSTREFC,Reference Result in Standard Format,Char,,,,,Variable Qualifier,Reference value for the result or finding copied or derived from GFORREF in a standard format.,Perm
SDTMIG v3.4,24,Findings,GF,GFSTREFN,Numeric Reference Result in Std Units,Num,,,,,Variable Qualifier,"Reference value for continuous or numeric results or findings in standard format or in standard units. GFSTREFN uses the same units as GFSTRESN, if applicable.",Perm
SDTMIG v3.4,25,Findings,GF,GFRESCAT,Result Category,Char,,,,,Variable Qualifier,Used to categorize the result of a finding.,Perm
SDTMIG v3.4,26,Findings,GF,GFINHERT,Inheritability,Char,C181177,,,,Variable Qualifier,Identifies whether the variation can be passed to the next generation.,Perm
SDTMIG v3.4,27,Findings,GF,GFGENREF,Genome Reference,Char,,,,,Variable Qualifier,"An identifier for the genome reference used to generate the reported result. For example, Genome Reference Consortium Human Build 38 patch release 13 may be represented as ""GRCh38.p13"".",Perm
SDTMIG v3.4,28,Findings,GF,GFCHROM,Chromosome Identifier,Char,,,,,Variable Qualifier,"The designation (name or number) of the chromosome or contig on which the variant or other feature appears (e.g., ""17""; ""X"").",Perm
SDTMIG v3.4,29,Findings,GF,GFSYM,Genomic Symbol,Char,,,,,Variable Qualifier,A published symbol for the portion of the genome serving as a locus for the experiment/test.,Perm
SDTMIG v3.4,30,Findings,GF,GFSYMTYP,Genomic Symbol Type,Char,C181176,,,,Variable Qualifier,A description of the type of genomic entity that is represented by the published symbol in GFSYM.,Perm
SDTMIG v3.4,31,Findings,GF,GFGENLOC,Genetic Location,Char,,,,,Variable Qualifier,Specifies the location within a sequence for the observed value in GFORRES.,Perm
SDTMIG v3.4,32,Findings,GF,GFGENSR,Genetic Sub-Region,Char,,,,,Variable Qualifier,"The portion of the locus in which the variation was found. Examples: ""Exon 15"", ""Kinase domain"".",Perm
SDTMIG v3.4,33,Findings,GF,GFSEQID,Sequence Identifier \n,Char,,,,,Variable Qualifier,"A unique identifier for the sequence used as the reference to identify the genetic variation in the result. Examples: ""NM_001234"", ""ENSG00000182533"", ""ENST00000343849.2"".",Perm
SDTMIG v3.4,34,Findings,GF,GFPVRID,Published Variant Identifier,Char,,,,,Variable Qualifier,"A unique identifier for the variation that has been publicly characterized in an external database. Examples: ""rs2231142"", ""COSM41596"".",Perm
SDTMIG v3.4,35,Findings,GF,GFCOPYID,Copy Identifier,Char,,,,,Variable Qualifier,An arbitrary identifier used to differentiate between copies of a genetic target of interest present on homologous chromosomes.,Perm
SDTMIG v3.4,36,Findings,GF,GFSTAT,Completion Status,Char,C66789,,,,Record Qualifier,"Used to indicate that a question was not asked or a test was not done, or a test was attempted but did not generate a result. Should be null or have a value of ""NOT DONE"".",Perm
SDTMIG v3.4,37,Findings,GF,GFREASND,Reason Test Not Done,Char,,,,,Record Qualifier,"Reason not done. Used in conjunction with GFSTAT when value is ""NOT DONE"".",Perm
SDTMIG v3.4,38,Findings,GF,GFXFN,External File Path,Char,,,,,Record Qualifier,The filename and/or path to external data not stored in the same format and possibly not the same location as the other data for a study.,Perm
SDTMIG v3.4,39,Findings,GF,GFNAM,Laboratory/Vendor Name,Char,,,,,Record Qualifier,"Name or identifier of the vendor that provided the test result. When more than 1 vendor is involved in the generation of the result, additional vendors should be represented as supplemental qualifiers.",Perm
SDTMIG v3.4,40,Findings,GF,GFSPEC,Specimen Material Type,Char,C111114,,,,Record Qualifier,Identifies the type of genetic material used for the measurement.,Perm
SDTMIG v3.4,41,Findings,GF,GFMETHOD,Method of Test or Examination,Char,C85492,,,,Record Qualifier,The test method by which the examination is performed by the wet lab in order to yield the result reported in the dataset.,Exp
SDTMIG v3.4,42,Findings,GF,GFRUNID,Run ID,Char,,,,,Record Qualifier,A unique identifier for a particular run of a test performed by the wet lab on a particular batch of samples. This identifier can be used to distinguish between records for the same test performed at different times.,Perm
SDTMIG v3.4,43,Findings,GF,GFANMETH,Analysis Method,Char,C181181,,,,Record Qualifier,The method of secondary processing performed by the dry lab to yield the result reported in the dataset.,Perm
SDTMIG v3.4,44,Findings,GF,GFBLFL,Baseline Flag,Char,C66742,,,,Record Qualifier,"Indicator used to identify a baseline value. Should be ""Y"" or null.",Perm
SDTMIG v3.4,45,Findings,GF,GFDRVFL,Derived Flag,Char,C66742,,,,Record Qualifier,"Used to indicate a derived record (e.g., a record that represents the average of other records such as a computed baseline). Should be ""Y"" or null.",Perm
SDTMIG v3.4,46,Findings,GF,GFLLOQ,Lower Limit of Quantitation,Num,,,,,Variable Qualifier,Indicates the lower limit of quantitation for an assay. Units will be those used for GFSTRESU.,Perm
SDTMIG v3.4,47,Findings,GF,GFREPNUM,Repetition Number,Num,,,,,Record Qualifier,The instance number of a test that is repeated within a given timeframe for the same test performed by the wet lab.,Perm
SDTMIG v3.4,48,Findings,GF,VISITNUM,Visit Number,Num,,,,,Timing,"Clinical encounter number. Numeric version of VISIT, used for sorting.",Exp
SDTMIG v3.4,49,Findings,GF,VISIT,Visit Name,Char,,,,,Timing,Protocol-defined description of clinical encounter.,Perm
SDTMIG v3.4,50,Findings,GF,VISITDY,Planned Study Day of Visit,Num,,,,,Timing,Planned study day of VISIT. Should be an integer.,Perm
SDTMIG v3.4,51,Findings,GF,GFDTC,Date/Time of Specimen Collection,Char,,,ISO 8601 datetime or interval,,Timing,Date and time of specimen collection.,Exp
SDTMIG v3.4,52,Findings,GF,GFDY,Study Day of Specimen Collection,Num,,,,,Timing,Actual study day of visit/collection/exam expressed in integer days relative to the sponsor-defined RFSTDTC in Demographics.,Perm
SDTMIG v3.4,53,Findings,GF,GFTPT,Planned Time Point Name,Char,,,,,Timing,"Text description of time when a measurement or observation should be taken as defined in the protocol. This may be represented as an elapsed time relative to a fixed reference point, such as time of last dose. See GFTPTNUM and GFTPTREF.",Perm
SDTMIG v3.4,54,Findings,GF,GFTPTNUM,Planned Time Point Number,Num,,,,,Timing,Numerical version of GFTPT used in sorting.,Perm
SDTMIG v3.4,55,Findings,GF,GFELTM,Planned Elapsed Time from Time Point Ref,Char,,,ISO 8601 duration,,Timing,"Elapsed time relative to a planned fixed reference (GFTPTREF). This variable is useful where there are repetitive measures. Not a clock time or a date time variable, but an interval, represented as ISO duration.",Perm
SDTMIG v3.4,56,Findings,GF,GFTPTREF,Time Point Reference,Char,,,,,Timing,"Name of the fixed reference point referred to by GFELTM, GFTPTNUM, and GFTPT. Examples: ""PREVIOUS DOSE"", ""PREVIOUS MEAL"".",Perm
SDTMIG v3.4,57,Findings,GF,GFRFTDTC,Date/Time of Reference Time Point,Char,,,ISO 8601 datetime or interval,,Timing,Date/time for a fixed reference time point defined by GFTPTREF.,Perm
SDTMIG v3.4,1,Findings,IE,STUDYID,Study Identifier,Char,,,,,Identifier,Unique identifier for a study.,Req
SDTMIG v3.4,2,Findings,IE,DOMAIN,Domain Abbreviation,Char,,,,IE,Identifier,Two-character abbreviation for the domain.,Req
SDTMIG v3.4,3,Findings,IE,USUBJID,Unique Subject Identifier,Char,,,,,Identifier,Identifier used to uniquely identify a subject across all studies for all applications or submissions involving the product.,Req
SDTMIG v3.4,4,Findings,IE,IESEQ,Sequence Number,Num,,,,,Identifier,Sequence number given to ensure uniqueness of subject records within a domain. May be any valid number.,Req
SDTMIG v3.4,5,Findings,IE,IESPID,Sponsor-Defined Identifier,Char,,,,,Identifier,Sponsor-defined reference number. May be preprinted on the CRF as an explicit line identifier or defined in the sponsor's operational database. Example: Inclusion or exclusion criteria number from CRF.,Perm
SDTMIG v3.4,6,Findings,IE,IETESTCD,Inclusion/Exclusion Criterion Short Name,Char,,,,,Topic,"Short name of the criterion described in IETEST. The value in IETESTCD cannot be longer than 8 characters, nor can it start with a number (e.g., ""1TEST"" is not valid). IETESTCD cannot contain characters other than letters, numbers, or underscores. Examples: ""IN01"", ""EX01"".",Req
SDTMIG v3.4,7,Findings,IE,IETEST,Inclusion/Exclusion Criterion,Char,,,,,Synonym Qualifier,Verbatim description of the inclusion or exclusion criterion that was the exception for the subject within the study. IETEST cannot be longer than 200 characters.,Req
SDTMIG v3.4,8,Findings,IE,IECAT,Inclusion/Exclusion Category,Char,C66797,,,,Grouping Qualifier,Used to define a category of related records across subjects.,Req
SDTMIG v3.4,9,Findings,IE,IESCAT,Inclusion/Exclusion Subcategory,Char,,,,,Grouping Qualifier,"A further categorization of the exception criterion. Can be used to distinguish criteria for a sub-study or for to categorize as a major or minor exceptions. Examples: ""MAJOR"", ""MINOR"".",Perm
SDTMIG v3.4,10,Findings,IE,IEORRES,I/E Criterion Original Result,Char,C66742,,,,Result Qualifier,"Original response to inclusion/exclusion criterion question, i.e., whether the inclusion or exclusion criterion was met.",Req
SDTMIG v3.4,11,Findings,IE,IESTRESC,I/E Criterion Result in Std Format,Char,C66742,,,,Result Qualifier,"Response to inclusion/exclusion criterion result, in standard format.",Req
SDTMIG v3.4,12,Findings,IE,VISITNUM,Visit Number,Num,,,,,Timing,"Clinical encounter number. Numeric version of VISIT, used for sorting.",Perm
SDTMIG v3.4,13,Findings,IE,VISIT,Visit Name,Char,,,,,Timing,Protocol-defined description of clinical encounter. May be used in addition to VISITNUM and/or VISITDY.,Perm
SDTMIG v3.4,14,Findings,IE,VISITDY,Planned Study Day of Visit,Num,,,,,Timing,Planned study day of the visit based upon RFSTDTC in Demographics.,Perm
SDTMIG v3.4,15,Findings,IE,TAETORD,Planned Order of Element within Arm,Num,,,,,Timing,Number that gives the planned order of the element within the arm for the element in which the assessment was made.,Perm
SDTMIG v3.4,16,Findings,IE,EPOCH,Epoch,Char,C99079,,,,Timing,Epoch associated with the observation date/time of the inclusion/exclusion finding.,Perm
SDTMIG v3.4,17,Findings,IE,IEDTC,Date/Time of Collection,Char,,,ISO 8601 datetime or interval,,Timing,Collection date and time of the inclusion/exclusion criterion represented in ISO 8601 character format.,Perm
SDTMIG v3.4,18,Findings,IE,IEDY,Study Day of Collection,Num,,,,,Timing,"Study day of collection of the inclusion/exclusion exceptions, measured as integer days. Algorithm for calculations must be relative to the sponsor-defined RFSTDTC variable in Demographics. This formula should be consistent across the submission.",Perm
SDTMIG v3.4,1,Findings,IS,STUDYID,Study Identifier,Char,,,,,Identifier,Unique identifier for a study.,Req
SDTMIG v3.4,2,Findings,IS,DOMAIN,Domain Abbreviation,Char,,,,IS,Identifier,Two-character abbreviation for the domain.,Req
SDTMIG v3.4,3,Findings,IS,USUBJID,Unique Subject Identifier,Char,,,,,Identifier,Identifier used to uniquely identify a subject across all studies for all applications or submissions involving the product.,Req
SDTMIG v3.4,4,Findings,IS,NHOID,Non-host Organism ID,Char,,,,,Identifier,"Sponsor-defined identifier for a non-host organism which should only be used when the organism is the subject of the TEST. This variable should be populated with an intuitive name based on the identity of the non-host organism as reported by a lab (e.g., ""A/California/7/2009 (H1N1)""). It is not to be used as a qualifier of the result in the record on which it appears.",Perm
SDTMIG v3.4,5,Findings,IS,ISSEQ,Sequence Number,Num,,,,,Identifier,Sequence number to ensure uniqueness of records within a dataset for a subject. May be any valid number (including decimals) and does not have to start at 1.,Req
SDTMIG v3.4,6,Findings,IS,ISGRPID,Group ID,Char,,,,,Identifier,Used to tie together a block of related records in a single domain for a subject.,Perm
SDTMIG v3.4,7,Findings,IS,ISREFID,Reference ID,Char,,,,,Identifier,"Internal or external specimen identifier. Example: ""458975-01"".",Perm
SDTMIG v3.4,8,Findings,IS,ISSPID,Sponsor-Defined Identifier,Char,,,,,Identifier,Sponsor-defined identifier.,Perm
SDTMIG v3.4,9,Findings,IS,ISTESTCD,Immunogenicity Test/Exam Short Name,Char,C120525,,,,Topic,"Short name of the measurement, test, or examination described in ISTEST. It can be used as a column name when converting a dataset from a vertical to a horizontal format. The value in ISTESTCD cannot be longer than 8 characters, nor can it start with a number (e.g., ""1TEST"" is not valid). ISTESTCD cannot contain characters other than letters, numbers, or underscores.",Req
SDTMIG v3.4,10,Findings,IS,ISTEST,Immunogenicity Test or Examination Name,Char,C120526,,,,Synonym Qualifier,"Verbatim name of the test or examination used to obtain the measurement or finding. The value in ISTEST cannot be longer than 40 characters. Example: ""Immunoglobulin E"".",Req
SDTMIG v3.4,11,Findings,IS,ISTSTCND,Test Condition,Char,C181175,,,,Variable Qualifier,Identifies any planned condition imposed by the assay system on the specimen at the time the test is performed.,Perm
SDTMIG v3.4,12,Findings,IS,ISCNDAGT,Test Condition Agent,Char,,,,,Record Qualifier,"The textual description of the agent used to impose a test condition. Examples are different stimulating agents used in immunoassays such as those in the Interferon Gamma Response assay (e.g., Mycobacterium tuberculosis ESAT-6, CFP-10, TB 7.7, Mitogen).",Perm
SDTMIG v3.4,13,Findings,IS,ISBDAGNT,Binding Agent,Char,C85491; C181169,,,,Variable Qualifier,"Text description of the agent that is binding to the entity in the ISTEST variable. ISBDAGNT is used to indicate that there is a binding relationship between the entities in the ISTEST and ISBDAGNT variables, regardless of direction. \n ISBDAGNT is not a method qualifier. It should only be used when the actual interest of the measurement is the binding interaction between the 2 entities in ISTEST and ISBDAGNT. In other words, the combination of ISTEST and ISBDAGNT should describe the entity or the analyte being measured, without the need for additional variables. \n The binding agent may be (but is not limited to) a test article, a portion of the test article, a related compound, an endogenous molecule, an allergen, or an infectious agent.",Perm
SDTMIG v3.4,14,Findings,IS,ISTSTOPO,Test Operational Objective,Char,C181170,,,,Variable Qualifier,"Text description of the high-level purpose of the test at the operational level. If populated, valid values are ""SCREEN"", ""CONFIRM"", and ""QUANTIFY"".",Perm
SDTMIG v3.4,15,Findings,IS,ISMSCBCE,Molecule Secreted by Cells,Char,,,,,Variable Qualifier,"Text description of the entity secreted by the cells represented in ISTEST. The combination of ISTEST and ISMSCBCE should describe the entity or the analyte being measured, without the need for additional variables.",Perm
SDTMIG v3.4,16,Findings,IS,ISTSTDTL,Test Detail,Char,,,,,Variable Qualifier,Further description of ISTESTCD and ISTEST.,Perm
SDTMIG v3.4,17,Findings,IS,ISCAT,Category for Immunogenicity Test,Char,,,,,Grouping Qualifier,"Used to define a category of topic-variable values across subjects. Example: ""SEROLOGY"".",Perm
SDTMIG v3.4,18,Findings,IS,ISSCAT,Subcategory for Immunogenicity Test,Char,,,,,Grouping Qualifier,A further categorization of ISCAT.,Perm
SDTMIG v3.4,19,Findings,IS,ISORRES,Results or Findings in Original Units,Char,,,,,Result Qualifier,Result of the measurement or finding as originally received or collected.,Exp
SDTMIG v3.4,20,Findings,IS,ISORRESU,Original Units,Char,C71620,,,,Variable Qualifier,"Original units in which the data were collected. The unit for ISORRES. Examples: ""Index Value"", ""gpELISA"", ""unit/mL"".",Exp
SDTMIG v3.4,21,Findings,IS,ISORNRLO,Reference Range Lower Limit in Orig Unit,Char,,,,,Variable Qualifier,Lower end of reference range for continuous measurement in original units. Should be populated only for continuous results.,Exp
SDTMIG v3.4,22,Findings,IS,ISORNRHI,Reference Range Upper Limit in Orig Unit,Char,,,,,Variable Qualifier,Upper end of reference range for continuous measurement in original units. Should be populated only for continuous results.,Exp
SDTMIG v3.4,23,Findings,IS,ISSTRESC,Character Result/Finding in Std Format,Char,,,,,Result Qualifier,"Contains the result value for all findings copied or derived from ISORRES, in a standard format or in standard units. ISSTRESC should store all results or findings in character format; if results are numeric, they should also be stored in numeric format in ISSTRESN.",Exp
SDTMIG v3.4,24,Findings,IS,ISSTRESN,Numeric Results/Findings in Std. Units,Num,,,,,Result Qualifier,Used for continuous or numeric results or findings in standard format; copied in numeric format from ISSTRESC. ISSTRESN should store all numeric test results or findings.,Exp
SDTMIG v3.4,25,Findings,IS,ISSTRESU,Standard Units,Char,C71620,,,,Variable Qualifier,"Standardized units used for ISSTRESC and ISSTRESN. Examples: ""Index Value"", ""gpELISA"", ""unit/mL"".",Exp
SDTMIG v3.4,26,Findings,IS,ISSTNRLO,Reference Range Lower Limit-Std Units,Num,,,,,Variable Qualifier,Lower end of reference range for continuous measurements for ISSTRESC/ISSTRESN in standardized units. Should be populated only for continuous results.,Exp
SDTMIG v3.4,27,Findings,IS,ISSTNRHI,Reference Range Upper Limit-Std Units,Num,,,,,Variable Qualifier,Upper end of reference range for continuous measurements in standardized units. Should be populated only for continuous results.,Exp
SDTMIG v3.4,28,Findings,IS,ISSTNRC,Reference Range for Char Rslt-Std Units,Char,,,,,Variable Qualifier,"For normal range values that are character in ordinal scale or if categorical ranges were supplied. Examples: ""-1 to +1"", ""NEGATIVE TO TRACE"".",Perm
SDTMIG v3.4,29,Findings,IS,ISNRIND,Reference Range Indicator,Char,C78736,,,,Variable Qualifier,"Indicates where the value falls with respect to reference range defined by ISORNRLO and ISORNRHI, ISSTNRLO and ISSTNRHI, or by ISSTNRC. Examples: ""NORMAL"", ""ABNORMAL"", ""HIGH"", ""LOW"". \n Sponsors should specify in the study metadata (Comments column in the Define-XML document) whether ISNRIND refers to the original or standard reference ranges and results. \n Should not be used to indicate clinical significance.",Exp
SDTMIG v3.4,30,Findings,IS,ISSTAT,Completion Status,Char,C66789,,,,Record Qualifier,Used to indicate a test was not done. Should be null if a result exists in ISORRES.,Perm
SDTMIG v3.4,31,Findings,IS,ISREASND,Reason Not Done,Char,,,,,Record Qualifier,"Describes why a measurement or test was not performed. Used in conjunction with ISSTAT when value is ""NOT DONE"".",Perm
SDTMIG v3.4,32,Findings,IS,ISNAM,Vendor Name,Char,,,,,Record Qualifier,Name or identifier of the laboratory or vendor who provided the test results.,Perm
SDTMIG v3.4,33,Findings,IS,ISSPEC,Specimen Type,Char,C78734,,,,Record Qualifier,"Defines the types of specimen used for a measurement. Example: ""SERUM"".",Perm
SDTMIG v3.4,34,Findings,IS,ISSPCCND,Specimen Condition,Char,C78733,,,,Record Qualifier,"Free or standardized text describing the condition of the specimen. Examples: ""HEMOLYZED"", ""ICTERIC"", ""LIPEMIC"".",Perm
SDTMIG v3.4,35,Findings,IS,ISSPCUFL,Specimen Usability for the Test,Char,C66742,,,,Record Qualifier,"Describes the usability of the specimen for the test. The value will be ""N"" if the specimen is not usable, and null if the specimen is usable.",Perm
SDTMIG v3.4,36,Findings,IS,ISMETHOD,Method of Test or Examination,Char,C85492,,,,Record Qualifier,"Method of the test or examination. Examples: ""ELISA"", ""ELISPOT"".",Perm
SDTMIG v3.4,37,Findings,IS,ISLOBXFL,Last Observation Before Exposure Flag,Char,C66742,,,,Record Qualifier,"Operationally derived indicator used to identify the last non-missing value prior to RFXSTDTC. The value should be ""Y"" or null.",Perm
SDTMIG v3.4,38,Findings,IS,ISBLFL,Baseline Flag,Char,C66742,,,,Record Qualifier,"Indicator used to identify a baseline value. Should be ""Y"" or null. Note that ISBLFL is retained for backward compatibility. The authoritative baseline for statistical analysis is in an ADaM dataset.",Perm
SDTMIG v3.4,39,Findings,IS,ISDRVFL,Derived Flag,Char,C66742,,,,Record Qualifier,"Used to indicate a derived record. The value should be ""Y"" or null. Examples of records that might be derived for the submission datasets include those that represent the average of other records, do not come from the CRF, or are not as originally received or collected. If ISDRVFL=""Y"", then ISORRES may be null, with ISSTRESC and (if numeric) ISSTRESN having the derived value.",Perm
SDTMIG v3.4,40,Findings,IS,ISLLOQ,Lower Limit of Quantitation,Num,,,,,Variable Qualifier,Indicates the lower limit of quantitation for an assay. Units will be those used for ISSTRESU.,Exp
SDTMIG v3.4,41,Findings,IS,VISITNUM,Visit Number,Num,,,,,Timing,"Clinical encounter number. Numeric version of VISIT, used for sorting.",Exp
SDTMIG v3.4,42,Findings,IS,VISIT,Visit Name,Char,,,,,Timing,Protocol-defined description of a clinical encounter. May be used in addition to VISITNUM and/or VISITDY.,Perm
SDTMIG v3.4,43,Findings,IS,VISITDY,Planned Study Day of Visit,Num,,,,,Timing,Planned study day of the visit based upon RFSTDTC in Demographics.,Perm
SDTMIG v3.4,44,Findings,IS,TAETORD,Planned Order of Element within Arm,Num,,,,,Timing,Number that gives the planned order of the element within the arm.,Perm
SDTMIG v3.4,45,Findings,IS,EPOCH,Epoch,Char,C99079,,,,Timing,"Epoch associated with the start date/time of the observation, or the date/time of collection if start date/time is not collected.",Perm
SDTMIG v3.4,46,Findings,IS,ISDTC,Date/Time of Collection,Char,,,ISO 8601 datetime or interval,,Timing,Collection date and time of an observation.,Exp
SDTMIG v3.4,47,Findings,IS,ISENDTC,End Date/Time of Specimen Collection,Char,,,ISO 8601 datetime or interval,,Timing,End date/time of the observation.,Perm
SDTMIG v3.4,48,Findings,IS,ISDY,Study Day of Visit/Collection/Exam,Num,,,,,Timing,Actual study day of visit/collection/exam expressed in integer days relative to sponsor-defined RFSTDTC in Demographics.,Perm
SDTMIG v3.4,49,Findings,IS,ISENDY,Study Day of End of Specimen Collection,Num,,,,,Timing,Actual study day of end of observation expressed in integer days relative to the sponsor-defined RFSTDTC in Demographics.,Perm
SDTMIG v3.4,50,Findings,IS,ISTPT,Planned Time Point Name,Char,,,,,Timing,"Text description of time when specimen should be taken. This may be represented as an elapsed time relative to a fixed reference point, such as time of last dose. See ISTPTNUM and ISTPTREF. Examples: ""Start"", ""5 min post"".",Perm
SDTMIG v3.4,51,Findings,IS,ISTPTNUM,Planned Time Point Number,Num,,,,,Timing,Numerical version of ISTPT to aid in sorting.,Perm
SDTMIG v3.4,52,Findings,IS,ISELTM,Planned Elapsed Time from Time Point Ref,Char,,,ISO 8601 duration,,Timing,"Planned elapsed time (in ISO 8601) relative to a planned fixed reference (ISTPTREF). This variable is useful where there are repetitive measures. Not a clock time or a date/time variable. Represented as ISO 8601 duration. Examples: ""-PT15M"" to represent the period of 15 minutes prior to the reference point indicated by ISTPTREF, ""PT8H"" to represent the period of 8 hours after the reference point indicated by ISTPTREF.",Perm
SDTMIG v3.4,53,Findings,IS,ISTPTREF,Time Point Reference,Char,,,,,Timing,"Name of the fixed reference point referred to by ISELTM, ISTPTNUM, and ISTPT. Examples: ""PREVIOUS DOSE"", ""PREVIOUS MEAL"".",Perm
SDTMIG v3.4,54,Findings,IS,ISRFTDTC,Date/Time of Reference Time Point,Char,,,ISO 8601 datetime or interval,,Timing,"Date/time of the reference time point, ISTPTREF.",Perm
SDTMIG v3.4,1,Findings,LB,STUDYID,Study Identifier,Char,,,,,Identifier,Unique identifier for a study.,Req
SDTMIG v3.4,2,Findings,LB,DOMAIN,Domain Abbreviation,Char,,,,LB,Identifier,Two-character abbreviation for the domain.,Req
SDTMIG v3.4,3,Findings,LB,USUBJID,Unique Subject Identifier,Char,,,,,Identifier,Identifier used to uniquely identify a subject across all studies for all applications or submissions involving the product.,Req
SDTMIG v3.4,4,Findings,LB,LBSEQ,Sequence Number,Num,,,,,Identifier,Sequence number given to ensure uniqueness of subject records within a domain. May be any valid number.,Req
SDTMIG v3.4,5,Findings,LB,LBGRPID,Group ID,Char,,,,,Identifier,Used to tie together a block of related records in a single domain for a subject.,Perm
SDTMIG v3.4,6,Findings,LB,LBREFID,Specimen ID,Char,,,,,Identifier,Internal or external specimen identifier. Example: specimen ID.,Perm
SDTMIG v3.4,7,Findings,LB,LBSPID,Sponsor-Defined Identifier,Char,,,,,Identifier,Sponsor-defined reference number. May be preprinted on the CRF as an explicit line identifier or defined in the sponsor's operational database. Example: Line number on the Lab page.,Perm
SDTMIG v3.4,8,Findings,LB,LBTESTCD,Lab Test or Examination Short Name,Char,C65047,,,,Topic,"Short name of the measurement, test, or examination described in LBTEST. It can be used as a column name when converting a dataset from a vertical to a horizontal format. The value in LBTESTCD cannot be longer than 8 characters, nor can it start with a number (e.g., ""1TEST"" is not valid). LBTESTCD cannot contain characters other than letters, numbers, or underscores. Examples: ""ALT"", ""LDH"".",Req
