{"location":"/home/avinash/home/codebase/python-base/clinical_data_api_iceberg/iceberg_warehouse/clinical/CM","table-uuid":"fb43223d-7121-451d-8dd7-e0bc1808197c","last-updated-ms":1775682614589,"last-column-id":20,"schemas":[{"type":"struct","fields":[{"id":1,"name":"STUDY","type":"string","required":false,"doc":"Study identifier (human-readable)"},{"id":2,"name":"SITE","type":"string","required":false,"doc":"Site identifier (human-readable)"},{"id":3,"name":"SUBJECT","type":"string","required":false,"doc":"Subject identifier (human-readable)"},{"id":4,"name":"VISIT","type":"string","required":false,"doc":"Visit name"},{"id":5,"name":"FORM","type":"string","required":false,"doc":"Form / CRF page name"},{"id":6,"name":"DOMAIN","type":"string","required":false,"doc":"SDTM domain code"},{"id":7,"name":"CMSEQ","type":"long","required":false,"doc":"Sequence number of concomitant medication"},{"id":8,"name":"CMTRT","type":"string","required":false,"doc":"Reported name of drug / medication"},{"id":9,"name":"CMDECOD","type":"string","required":false,"doc":"Standardized medication name (WHODrug)"},{"id":10,"name":"CMCAT","type":"string","required":false,"doc":"Category for medication"},{"id":11,"name":"CMSTDTC","type":"date","required":false,"doc":"Start date of medication"},{"id":12,"name":"CMENDTC","type":"date","required":false,"doc":"End date of medication"},{"id":13,"name":"CMDOSE","type":"double","required":false,"doc":"Dose per administration"},{"id":14,"name":"CMDOSU","type":"string","required":false,"doc":"Units of dose"},{"id":15,"name":"CMDOSFRM","type":"string","required":false,"doc":"Dose form (tablet, capsule, …)"},{"id":16,"name":"CMROUTE","type":"string","required":false,"doc":"Route of administration"},{"id":17,"name":"CMDOSFRQ","type":"string","required":false,"doc":"Dosing frequency per interval"},{"id":18,"name":"SITEID","type":"string","required":false,"doc":"Site ID (partition key)"},{"id":19,"name":"STUDYID","type":"string","required":false,"doc":"Study ID (partition key)"},{"id":20,"name":"USUBJID","type":"string","required":false,"doc":"Unique subject ID (partition key)"}],"schema-id":0,"identifier-field-ids":[]}],"current-schema-id":0,"partition-specs":[{"spec-id":0,"fields":[{"source-id":19,"field-id":1000,"transform":"identity","name":"STUDYID"},{"source-id":18,"field-id":1001,"transform":"identity","name":"SITEID"},{"source-id":20,"field-id":1002,"transform":"identity","name":"USUBJID"}]}],"default-spec-id":0,"last-partition-id":1002,"properties":{"description":"Concomitant Medications – drugs taken alongside the study treatment.","domain_code":"CM","write.format.default":"parquet"},"snapshots":[],"snapshot-log":[],"metadata-log":[],"sort-orders":[{"order-id":0,"fields":[]}],"default-sort-order-id":0,"refs":{},"statistics":[],"partition-statistics":[],"format-version":2,"last-sequence-number":0}