Seq. For Order,Observation Class,Domain Prefix,Variable Name (minus domain prefix),,Variable Label,Variable Name,Controlled Terms or Format,Role,CDISC Notes (for domains) Description (for General Classes),Core
1,All Classes,,STUDYID,,Study Identifier,STUDYID,,Identifier,Unique identifier for a study.,
2,All Classes,,DOMAIN,,Domain Abbreviation,DOMAIN,,Identifier,Two-character abbreviation for the domain.,
3,All Classes,,USUBJID,,Unique Subject Identifier,USUBJID,,Identifier,Identifier used to uniquely identify a subject across all studies for all applications or submissions involving the product.,
8,All Classes,,VISITNUM,,Visit Number,VISITNUM,,Timing,"Clinical encounter number. Numeric version of VISIT, used for sorting.",
9,All Classes,,VISIT,,Visit Name,VISIT,,Timing,1. Protocol-defined description of clinical encounter. 2. May be used in addition to VISITNUM and/or VISITDY.,
10,All Classes,,VISITDY,,Planned Study Day of Visit,VISITDY,,Timing,Planned study day of the visit based upon RFSTDTC in Demographics.,
11,All Classes,,TAETORD,,Planned Order of Elements within Arm,TAETORD,,Timing,Number that gives the order of the Element within the Arm.,
12,All Classes,,EPOCH,,Epoch,EPOCH,,Timing,Epoch associated with the Element in the planned sequence of Elements for the ARM to which the subject was assigned,
1,Events,AE,STUDYID,,Study Identifier,STUDYID,,Identifier,Unique identifier for a study.,Req
2,Events,AE,DOMAIN,,Domain Abbreviation,DOMAIN,,Identifier,Two-character abbreviation for the domain.,Req
3,Events,AE,USUBJID,,Unique Subject Identifier,USUBJID,,Identifier,Identifier used to uniquely identify a subject across all studies for all applications or submissions involving the product.,Req
4,Events,AE,SEQ,,Sequence Number,AESEQ,,Identifier,Sequence Number given to ensure uniqueness of subject records within a domain. May be any valid number.,Req
5,Events,AE,GRPID,,Group ID,AEGRPID,,Identifier,Used to tie together a block of related records in a single domain for a subject.,Perm
6,Events,AE,REFID,,Reference ID,AEREFID,,Identifier,Internal or external identifier such as a serial number on an SAE reporting form,Perm
7,Events,AE,SPID,,Sponsor-Defined Identifier,AESPID,,Identifier,Sponsor-defined identifier. It may be pre-printed on the CRF as an explicit line identifier or defined in the sponsor's operational database. Example: Line number on an Adverse Events page.,Perm
8,Events,AE,TERM,,Reported Term for the Adverse Event,AETERM,,Topic,Verbatim name of the event.,Req
9,Events,AE,MODIFY,,Modified Reported Term,AEMODIFY,,Synonym Qualifier,"If AETERM is modified to facilitate coding, then AEMODIFY will contain the modified text.",Perm
10,Events,AE,DECOD,,Dictionary-Derived Term,AEDECOD,,Synonym Qualifier,Dictionary-derived text description of AETERM or AEMODIFY. Equivalent to the Preferred Term (PT in MedDRA). The sponsor is expected to provide the dictionary name and version used to map the terms utilizing the define.xml external codelist attributes,Req
11,Events,AE,CAT,,Category for Adverse Event,AECAT,,Grouping Qualifier,"Used to define a category of related records. Example: BLEEDING, NEUROPSYCHIATRIC.",Perm
12,Events,AE,SCAT,,Subcategory for Adverse Event,AESCAT,,Grouping Qualifier,A further categorization of adverse event. Example: NEUROLOGIC.,Perm
13,Events,AE,PRESP,,Pre-Specified Adverse Event,AEPRESP,NY,Record Qualifier,"A value of 'Y' indicates that this adverse event was pre-specified on the CRF. Values are null for spontaneously reported events (i.e., those collected as free-text verbatim terms)",Perm
14,Events,AE,BODSYS,,Body System or Organ Class,AEBODSYS,,Record Qualifier,"Dictionary derived. Body system or organ class used by the sponsor from the coding dictionary (e.g., MedDRA). When using a multi-axial dictionary such as MedDRA, this should contain the SOC used for the sponsor's analyses and summary tables which may not necessarily be the primary SOC.",Exp
15,Events,AE,LOC,,Location of Event,AELOC,LOC,Record Qualifier,"Describes anatomical location relevant for the event (e.g., LEFT ARM for skin rash).",Perm
16,Events,AE,SEV,,Severity/Intensity,AESEV,AESEV,Record Qualifier,"The severity or intensity of the event. Examples: MILD, MODERATE, SEVERE.",Perm
17,Events,AE,SER,,Serious Event,AESER,NY,Record Qualifier,Is this a serious event?,Exp
18,Events,AE,ACN,,Action Taken with Study Treatment,AEACN,ACN,Record Qualifier,"Describes changes to the study treatment as a result of the event. AEACN is specifically for the relationship to study treatment. AEACNOTH is for actions unrelated to dose adjustments of study treatment. Examples of AEACN values include ICH E2B values: DRUG WITHDRAWN, DOSE REDUCED, DOSE INCREASED, DOSE NOT CHANGED, UNKNOWN or NOT APPLICABLE",Exp
19,Events,AE,ACNOTH,,Other Action Taken,AEACNOTH,,Record Qualifier,Describes other actions taken as a result of the event that are unrelated to dose adjustments of study treatment. Usually reported as free text. Example: 'TREATMENT UNBLINDED. PRIMARY CARE PHYSICIAN NOTIFIED.',Perm
20,Events,AE,REL,,Causality,AEREL,,Record Qualifier,"Records the investigator's opinion as to the causality of the event to the treatment. ICH E2A and E2B examples include NOT RELATED, UNLIKELY RELATED, POSSIBLY RELATED, RELATED. Controlled Terminology may be defined in the future. Check with regulatory authority for population of this variable",Exp
21,Events,AE,RELNST,,Relationship to Non-Study Treatment,AERELNST,,Record Qualifier,Records the investigator's opinion as to whether the event may have been due to a treatment other than study drug. May be reported as free text. Example: 'MORE LIKELY RELATED TO ASPIRIN USE.'.,Perm
22,Events,AE,PATT,,Pattern of Adverse Event,AEPATT,,Record Qualifier,"Used to indicate the pattern of the event over time. Examples: INTERMITTENT, CONTINUOUS, SINGLE EVENT.",Perm
23,Events,AE,OUT,,Outcome of Adverse Event,AEOUT,OUT,Record Qualifier,Description of the outcome of an event.,Perm
24,Events,AE,SCAN,,Involves Cancer,AESCAN,NY,Record Qualifier,Was the serious event associated with the development of cancer?,Perm
25,Events,AE,SCONG,,Congenital Anomaly or Birth Defect,AESCONG,NY,Record Qualifier,Was the serious event associated with congenital anomaly or birth defect?,Perm
26,Events,AE,SDISAB,,Persist or Signif Disability/Incapacity,AESDISAB,NY,Record Qualifier,Did the serious event result in persistent or significant disability/incapacity?,Perm
27,Events,AE,SDTH,,Results in Death,AESDTH,NY,Record Qualifier,Did the serious event result in death?,Perm
28,Events,AE,SHOSP,,Requires or Prolongs Hospitalization,AESHOSP,NY,Record Qualifier,Did the serious event require or prolong hospitalization?,Perm
29,Events,AE,SLIFE,,Is Life Threatening,AESLIFE,NY,Record Qualifier,Was the serious event life threatening?,Perm
30,Events,AE,SOD,,Occurred with Overdose,AESOD,NY,Record Qualifier,Did the serious event occur with an overdose?,Perm
31,Events,AE,SMIE,,Other Medically Important Serious Event,AESMIE,NY,Record Qualifier,Do additional categories for seriousness apply?,Perm
32,Events,AE,CONTRT,,Concomitant or Additional Trtmnt Given,AECONTRT,NY,Record Qualifier,Was another treatment given because of the occurrence of the event?,Perm
33,Events,AE,TOXGR,,Standard Toxicity Grade,AETOXGR,,Record Qualifier,"Toxicity grade according to a standard toxicity scale such as Common Terminology Criteria for Adverse Events v3.0 (CTCAE). Sponsor should specify name of the scale and version used in the metadata (see 6.2.1.1, Assumption 6c). If value is from a numeric scale, represent only the number (e.g., '2' and not 'Grade 2').",Perm
34,Events,AE,STDTC,,Start Date/Time of Adverse Event,AESTDTC,ISO 8601,Timing,,Exp
35,Events,AE,ENDTC,,End Date/Time of Adverse Event,AEENDTC,ISO 8601,Timing,,Exp
36,Events,AE,STDY,,Study Day of Start of Adverse Event,AESTDY,,Timing,Study day of start of adverse event relative to the sponsor-defined RFSTDTC.,Perm
37,Events,AE,ENDY,,Study Day of End of Adverse Event,AEENDY,,Timing,Study day of end of event relative to the sponsor-defined RFSTDTC.,Perm
38,Events,AE,DUR,,Duration of Adverse Event,AEDUR,ISO 8601,Timing,"Collected duration and unit of an adverse event. Used only if collected on the CRF and not derived from start and end date/times. Example: P1DT2H (for 1 day, 2 hours).",Perm
39,Events,AE,ENRF,,End Relative to Reference Period,AEENRF,STENRF,Timing,Describes the end of the event relative to the sponsor-defined reference period. The sponsor-defined reference period is a continuous period of time defined by a discrete starting point (RFSTDTC) and a discrete ending point (RFENDTC) of the trial.,Perm
40,Events,AE,ENRTPT,,End Relative to Reference Time Point,AEENRTPT,ENRTPT,Timing,Identifies the end of the event as being before or after the reference time point defined by variable AEENTPT.,Perm
41,Events,AE,ENTPT,,End Reference Time Point,AEENTPT,,Timing,Description of date/time in ISO 8601 character format of the reference point referred to by AEENRTPT. Examples: '2003-12-25' or 'VISIT 2'.,Perm
1,Events,DS,STUDYID,,Study Identifier,STUDYID,,Identifier,Unique identifier for a study.,Req
2,Events,DS,DOMAIN,,Domain Abbreviation,DOMAIN,,Identifier,Two-character abbreviation for the domain.,Req
3,Events,DS,USUBJID,,Unique Subject Identifier,USUBJID,,Identifier,Identifier used to uniquely identify a subject across all studies for all applications or submissions involving the product.,Req
4,Events,DS,SEQ,,Sequence Number,DSSEQ,,Identifier,Sequence Number given to ensure uniqueness of subject records within a domain. May be any valid number.,Req
5,Events,DS,GRPID,,Group ID,DSGRPID,,Identifier,Used to tie together a block of related records in a single domain for a subject.,Perm
6,Events,DS,REFID,,Reference ID,DSREFID,,Identifier,Internal or external identifier.,Perm
7,Events,DS,SPID,,Sponsor-Defined Identifier,DSSPID,,Identifier,Sponsor-defined reference number. Perhaps pre-printed on the CRF as an explicit line identifier or defined in the sponsor's operational database. Example: Line number on a Disposition page.,Perm
8,Events,DS,TERM,,Reported Term for the Disposition Event,DSTERM,,Topic,"Verbatim name of the event or protocol milestone. Some terms in DSTERM will match DSDECOD, but others, such as 'Subject moved' will map to controlled terminology in DSDECOD, such as 'LOST TO FOLLOW-UP.'",Req
9,Events,DS,DECOD,,Standardized Disposition Term,DSDECOD,NCOMPLT,Synonym Qualifier,"Controlled terminology for the name of disposition event or protocol milestone. Examples of protocol milestones: INFORMED CONSENT OBTAINED, RANDOMIZED",Req
10,Events,DS,CAT,,Category for Disposition Event,DSCAT,DSCAT,Grouping Qualifier,"Used to define a category of related records. DSCAT is now an 'Expected' variable. DSCAT was permissible in SDTMIG 3.1.1 and earlier versions. The change from 'permissible' to 'expected' is based on the requirement to distinguish protocol milestones and/or other events from disposition events. DSCAT may be null if there are only 'disposition events'; however, it is recommended that DSCAT always be populated.",Exp
11,Events,DS,SCAT,,Subcategory for Disposition Event,DSSCAT,,Grouping Qualifier,A further categorization of disposition event.,Perm
12,Events,DS,EPOCH,,Epoch,EPOCH,,Timing,Epoch associated with the Element in the planned sequence of Elements for the ARM to which the subject was assigned,Perm
13,Events,DS,DTC,,Date/Time of Collection,DSDTC,ISO 8601,Timing,,Perm
14,Events,DS,STDTC,,Start Date/Time of Disposition Event,DSSTDTC,ISO 8601,Timing,,Exp
15,Events,DS,STDY,,Study Day of Start of Disposition Event,DSSTDY,,Timing,Study day of start of event relative to the sponsor-defined RFSTDTC.,Perm
1,Events,MH,STUDYID,,Study Identifier,STUDYID,,Identifier,Unique identifier for a study.,Req
2,Events,MH,DOMAIN,,Domain Abbreviation,DOMAIN,,Identifier,Two-character abbreviation for the domain.,Req
3,Events,MH,USUBJID,,Unique Subject Identifier,USUBJID,,Identifier,Identifier used to uniquely identify a subject across all studies for all applications or submissions involving the product.,Req
4,Events,MH,SEQ,,Sequence Number,MHSEQ,,Identifier,Sequence Number given to ensure uniqueness of subject records within a domain. May be any valid number.,Req
5,Events,MH,GRPID,,Group ID,MHGRPID,,Identifier,Used to tie together a block of related records in a single domain for a subject.,Perm
6,Events,MH,REFID,,Reference ID,MHREFID,,Identifier,Internal or external medical history identifier.,Perm
7,Events,MH,SPID,,Sponsor-Defined Identifier,MHSPID,,Identifier,Sponsor-defined reference number. Perhaps pre-printed on the CRF as an explicit line identifier or defined in the sponsor's operational database. Example: Line number on a Medical History page.,Perm
8,Events,MH,TERM,,Reported Term for the Medical History,MHTERM,,Topic,Verbatim or preprinted CRF term for the medical condition or event.,Req
9,Events,MH,MODIFY,,Modified Reported Term,MHMODIFY,,Synonym Qualifier,"If MHTERM is modified to facilitate coding, then MHMODIFY will contain the modified text.",Perm
10,Events,MH,DECOD,,Dictionary-Derived Term,MHDECOD,,Synonym Qualifier,Dictionary-derived text description of MHTERM or MHMODIFY. Equivalent to the Preferred Term (PT in MedDRA). The sponsor is expected to provide the dictionary name and version used to map the terms utilizing the define.xml external codelist attributes,Perm
11,Events,MH,CAT,,Category for Medical History,MHCAT,,Grouping Qualifier,Used to define a category of related records. Examples: CARDIAC or GENERAL,Perm
12,Events,MH,SCAT,,Subcategory for Medical History,MHSCAT,,Grouping Qualifier,A further categorization of the condition or event.,Perm
13,Events,MH,PRESP,,Medical History Event Pre-Specified,MHPRESP,NY,Record Qualifier,"A value of 'Y' indicates that this medical history event was pre-specified on the CRF. Values are null for spontaneously reported events (i.e., those collected as free-text verbatim terms)",Perm
14,Events,MH,OCCUR,,Medical History Occurrence,MHOCCUR,NY,Record Qualifier,Used when the occurrence of specific medical history conditions is solicited to indicate whether or not (Y/N) a medical condition (MHTERM) had ever occurred. Values are null for spontaneously reported events.,Perm
15,Events,MH,STAT,,Completion Status,MHSTAT,ND,Record Qualifier,The status indicates that the pre-specified question was not answered.,Perm
16,Events,MH,REASND,,Reason Medical History Not Collected,MHREASND,,Record Qualifier,Describes the reason data for a pre-specified condition was not collected. Used in conjunction with MHSTAT when value is NOT DONE.,Perm
17,Events,MH,BODSYS,,Body System or Organ Class,MHBODSYS,,Record Qualifier,"Dictionary-derived. Body system or organ class that is involved in an event or measurement from a standard hierarchy (e.g., MedDRA). When using a multi-axial dictionary such as MedDRA, this should contain the SOC used for the sponsor's analyses and summary tables which may not necessarily be the primary SOC.",Perm
18,Events,MH,DTC,,Date/Time of History Collection,MHDTC,ISO 8601,Timing,,Perm
19,Events,MH,STDTC,,Start Date/Time of Medical History Event,MHSTDTC,ISO 8601,Timing,,Perm
20,Events,MH,ENDTC,,End Date/Time of Medical History Event,MHENDTC,ISO 8601,Timing,,Perm
21,Events,MH,DY,,Study Day of History Collection,MHDY,,Timing,"1. Study day of medical history collection, measured as integer days. 2. Algorithm for calculations must be relative to the sponsor-defined RFSTDTC variable in Demographics. This formula should be consistent across the submission.",Perm
22,Events,MH,ENRF,,End Relative to Reference Period,MHENRF,STENRF,Timing,Describes the end of the event relative to the sponsor-defined reference period. The sponsor-defined reference period is a continuous period of time defined by a discrete starting point and a discrete ending point (represented by RFSTDTC and RFENDTC in Demographics),Perm
23,Events,MH,ENRTPT,,End Relative to Reference Time Point,MHENRTPT,ENRTPT,Timing,Identifies the end of the event as being before or after the reference time point defined by variable MHENTPT.,Perm
24,Events,MH,ENTPT,,End Reference Time Point,MHENTPT,,Timing,Description or date/time in ISO 8601 character format of the reference point referred to by MHENRTPT. Examples: '2003-12-25' or 'VISIT 2'.,Perm
1,Events,DV,STUDYID,,Study Identifier,STUDYID,,Identifier,Unique identifier for a study.,Req
2,Events,DV,DOMAIN,,Domain Abbreviation,DOMAIN,,Identifier,Two-character abbreviation for the domain.,Req
3,Events,DV,USUBJID,,Unique Subject Identifier,USUBJID,,Identifier,Identifier used to uniquely identify a subject across all studies for all applications or submissions involving the product.,Req
4,Events,DV,SEQ,,Sequence Number,DVSEQ,,Identifier,Sequence Number given to ensure uniqueness of subject records within a domain. May be any valid number.,Req
5,Events,DV,REFID,,Reference ID,DVREFID,,Identifier,Internal or external identifier.,Perm
6,Events,DV,SPID,,Sponsor-Defined Identifier,DVSPID,,Identifier,Sponsor-defined reference number. Perhaps pre-printed on the CRF as an explicit line identifier or defined in the sponsor's operational database. Example: Line number on a CRF page.,Perm
7,Events,DV,TERM,,Protocol Deviation Term,DVTERM,,Topic,"Verbatim name of the protocol deviation criterion. Example: IVRS PROCESS DEVIATION - NO DOSE CALL PERFORMED. The DVTERM values will map to the controlled terminology in DVDECOD, such as TREATMENT DEVIATION.",Req
8,Events,DV,DECOD,,Protocol Deviation Coded Term,DVDECOD,,Synonym Qualifier,"Controlled terminology for the name of the protocol deviation. Examples: SUBJECT NOT WITHDRAWN AS PER PROTOCOL, SELECTION CRITERIA NOT MET, EXCLUDED CONCOMITANT MEDICATION, TREATMENT DEVIATION.",Perm
9,Events,DV,CAT,,Category for Protocol Deviation,DVCAT,,Grouping Qualifier,Category of the protocol deviation criterion.,Perm
10,Events,DV,SCAT,,Subcategory for Protocol Deviation,DVSCAT,,Grouping Qualifier,A further categorization of the protocol deviation.,Perm
11,Events,DV,EPOCH,,Epoch,EPOCH,,Timing,Epoch associated with the Element in the planned sequence of Elements for the ARM to which the subject was assigned,Perm
12,Events,DV,STDTC,,Start Date/Time of Deviation,DVSTDTC,ISO 8601,Timing,Start date/time of deviation represented in ISO 8601 character format.,Perm
13,Events,DV,ENDTC,,End Date/Time of Deviation,DVENDTC,ISO 8601,Timing,End date/time of deviation represented in ISO 8601 character format.,Perm
1,Events,CE,STUDYID,,Study Identifier,STUDYID,,Identifier,Unique identifier for a study.,Req
2,Events,CE,DOMAIN,,Domain Abbreviation,DOMAIN,,Identifier,Two-character abbreviation for the domain.,Req
3,Events,CE,USUBJID,,Unique Subject Identifier,USUBJID,,Identifier,Identifier used to uniquely identify a subject across all studies for all applications or submissions involving the product.,Req
4,Events,CE,SEQ,,Sequence Number,CESEQ,,Identifier,Sequence Number given to ensure uniqueness of subject records within a domain. May be any valid number.,Req
5,Events,CE,GRPID,,Group ID,CEGRPID,,Identifier,Used to tie together a block of related records for a subject within a domain.,Perm
6,Events,CE,REFID,,Reference ID,CEREFID,,Identifier,Internal or external identifier.,Perm
7,Events,CE,SPID,,Sponsor-Defined Identifier,CESPID,,Identifier,Sponsor-defined reference number. Perhaps pre-printed on the CRF as an explicit line identifier or defined in the sponsor's operational database. Example: Line number on a CRF page.,Perm
8,Events,CE,TERM,,Reported Term for the Clinical Event,CETERM,,Topic,Term for the medical condition or event. Most likely pre-printed on CRF.,Req
9,Events,CE,DECOD,,Dictionary-Derived Term,CEDECOD,,Synonym Qualifier,Controlled terminology for the name of the clinical event. The sponsor is expected to provide the dictionary name and version used to map the terms utilizing the define.xml external codelist attributes,Perm
10,Events,CE,CAT,,Category for Clinical Event,CECAT,,Grouping Qualifier,Used to define a category of related records.,Perm
11,Events,CE,SCAT,,Subcategory for Clinical Event,CESCAT,,Grouping Qualifier,A further categorization of the condition or event.,Perm
12,Events,CE,PRESP,,Clinical Event Pre-Specified,CEPRESP,NY,Record Qualifier,"Used to indicate whether the Event in CETERM was pre-specified. Value is Y for pre-specified events, null for spontaneously reported events.",Perm
13,Events,CE,OCCUR,,Clinical Event Occurrence,CEOCCUR,NY,Record Qualifier,Used when the occurrence of specific events is solicited to indicate whether or not a clinical event occurred. Values are null for spontaneously reported events.,Perm
14,Events,CE,STAT,,Completion Status,CESTAT,ND,Record Qualifier,The status indicates that a question from a pre-specified list was not answered.,Perm
15,Events,CE,REASND,,Reason Clinical Event Not Collected,CEREASND,,Record Qualifier,Describes the reason clinical event data was not collected. Used in conjunction with CESTAT when value is NOT DONE.,Perm
16,Events,CE,BODSYS,,Body System or Organ Class,CEBODSYS,,Record Qualifier,"Dictionary-derived. Body system or organ class that is involved in an event or measurement from a standard hierarchy (e.g., MedDRA). When using a multi-axial dictionary such as MedDRA, this should contain the SOC used for the sponsor's analyses and summary tables which may not necessarily be the primary SOC.",Perm
17,Events,CE,SEV,,Severity/Intensity,CESEV,,Record Qualifier,"The severity or intensity of the event. Examples: MILD, MODERATE, SEVERE",Perm
18,Events,CE,DTC,,Date/Time of Event Collection,CEDTC,ISO 8601,Timing,,Perm
19,Events,CE,STDTC,,Start Date/Time of Clinical Event,CESTDTC,ISO 8601,Timing,,Perm
20,Events,CE,ENDTC,,End Date/Time of Clinical Event,CEENDTC,ISO 8601,Timing,,Perm
21,Events,CE,DY,,Study Day of Event Collection,CEDY,,Timing,"1. Study day of clinical event collection, measured as integer days. 2. Algorithm for calculations must be relative to the sponsor-defined RFSTDTC variable in Demographics. This formula should be consistent across the submission.",Perm
22,Events,CE,STRF,,Start Relative to Reference Period,CESTRF,STENRF,Timing,Describes the start of the clinical event relative to the sponsor-defined reference period. The sponsor-defined reference period is a continuous period of time defined by a discrete starting point and a discrete ending point (represented by RFSTDTC and RFENDTC in Demographics).,Perm
23,Events,CE,ENRF,,End Relative to Reference Period,CEENRF,STENRF,Timing,Describes the end of the event relative to the sponsor-defined reference period. The sponsor-defined reference period is a continuous period of time defined by a discrete starting point and a discrete ending point (represented by RFSTDTC and RFENDTC in Demographics).,Perm
24,Events,CE,STRTPT,,Start Relative to Reference Time Point,CESTRTPT,STRTPT,Timing,Identifies the start of the observation as being before or after the reference time point defined by variable CESTTPT.,Perm
25,Events,CE,STTPT,,Start Reference Time Point,CESTTPT,,Timing,Description or date/time in ISO 8601 character format of the sponsor-defined reference point referred to by --STRTPT. Examples: '2003-12-15' or 'VISIT 1'.,Perm
26,Events,CE,ENRTPT,,End Relative to Reference Time Point,CEENRTPT,ENRTPT,Timing,Identifies the end of the event as being before or after the reference time point defined by variable CEENTPT.,Perm
27,Events,CE,ENTPT,,End Reference Time Point,CEENTPT,,Timing,Description or date/time in ISO 8601 character format of the reference point referred to by CEENRTPT. Examples: '2003-12-25' or 'VISIT 2'.,Perm
1,Findings,EG,STUDYID,,Study Identifier,STUDYID,,Identifier,Unique identifier for a study.,Req
2,Findings,EG,DOMAIN,,Domain Abbreviation,DOMAIN,,Identifier,Two-character abbreviation for the domain.,Req
3,Findings,EG,USUBJID,,Unique Subject Identifier,USUBJID,,Identifier,Identifier used to uniquely identify a subject across all studies for all applications or submissions involving the product.,Req
4,Findings,EG,SEQ,,Sequence Number,EGSEQ,,Identifier,Sequence Number given to ensure uniqueness of subject records within a domain. May be any valid number.,Req
5,Findings,EG,GRPID,,Group ID,EGGRPID,,Identifier,Used to tie together a block of related records in a single domain for a subject.,Perm
6,Findings,EG,REFID,,ECG Reference ID,EGREFID,,Identifier,Internal or external ECG identifier. Example: UUID.,Perm
7,Findings,EG,SPID,,Sponsor-Defined Identifier,EGSPID,,Identifier,Sponsor-defined reference number. Perhaps pre-printed on the CRF as an explicit line identifier or defined in the sponsor's operational database. Example: Line number from the ECG page.,Perm
8,Findings,EG,TESTCD,,ECG Test or Examination Short Name,EGTESTCD,EGTESTCD,Topic,"Short name of the measurement, test, or examination described in EGTEST. It can be used as a column name when converting a dataset from a vertical to a horizontal format. The value in EGTESTCD cannot be longer than 8 characters, nor can it start with a number (e.g., '1TEST'). EGTESTCD cannot contain characters other than letters, numbers, or underscores. Examples :PRMEAN, QTMEAN",Req
9,Findings,EG,TEST,,ECG Test or Examination Name,EGTEST,EGTEST,Synonym Qualifier,"Verbatim name of the test or examination used to obtain the measurement or finding. The value in EGTEST cannot be longer than 40 characters. Examples: Summary (Mean) PR Duration, Summary (Mean) QT Duration",Req
10,Findings,EG,CAT,,Category for ECG,EGCAT,,Grouping Qualifier,"Used to categorize ECG observations across subjects. Examples: MEASUREMENT, FINDING, INTERVAL",Perm
11,Findings,EG,SCAT,,Subcategory for ECG,EGSCAT,,Grouping Qualifier,A further categorization of the ECG.,Perm
12,Findings,EG,POS,,ECG Position of Subject,EGPOS,POSITION,Record Qualifier,"Position of the subject during a measurement or examination. Examples: SUPINE, STANDING, SITTING.",Perm
13,Findings,EG,ORRES,,Result or Finding in Original Units,EGORRES,,Result Qualifier,"Result of the ECG measurement or finding as originally received or collected. Examples of expected values are 62 or 0.151 when the result is an interval or measurement, or 'ATRIAL FIBRILLATION' or 'QT PROLONGATION' when the result is a finding.",Exp
14,Findings,EG,ORRESU,,Original Units,EGORRESU,UNIT,Variable Qualifier,Original units in which the data were collected. The unit for EGORRES. Examples: sec or msec.,Perm
15,Findings,EG,STRESC,,Character Result/Finding in Std Format,EGSTRESC,EGSTRESC,Result Qualifier,"Contains the result value for all findings, copied or derived from EGORRES in a standard format or standard units. EGSTRESC should store all results or findings in character format; if results are numeric, they should also be stored in numeric format in EGSTRESN. For example, if a test has results of 'NONE', 'NEG', and 'NEGATIVE' in EGORRES and these results effectively have the same meaning, they could be represented in standard format in EGSTRESC as 'NEGATIVE'. For other examples, see general assumptions. Additional examples of result data: SINUS BRADYCARDIA, ATRIAL FLUTTER, ATRIAL FIBRILLATION.",Exp
16,Findings,EG,STRESN,,Numeric Result/Finding in Standard Units,EGSTRESN,,Result Qualifier,Used for continuous or numeric results or findings in standard format; copied in numeric format from EGSTRESC. EGSTRESN should store all numeric test results or findings.,Perm
17,Findings,EG,STRESU,,Standard Units,EGSTRESU,UNIT,Variable Qualifier,Standardized unit used for EGSTRESC or EGSTRESN.,Perm
18,Findings,EG,STAT,,Completion Status,EGSTAT,ND,Record Qualifier,"Used to indicate an ECG was not done, or an ECG measurement was not taken. Should be null if a result exists in EGORRES.",Perm
19,Findings,EG,REASND,,Reason ECG Not Performed,EGREASND,,Record Qualifier,Describes why a measurement or test was not performed. Examples: BROKEN EQUIPMENT or SUBJECT REFUSED. Used in conjunction with EGSTAT when value is NOT DONE.,Perm
20,Findings,EG,XFN,,ECG External File Name,EGXFN,,Record Qualifier,File name and path for the external ECG Waveform file.,Perm
21,Findings,EG,NAM,,Vendor Name,EGNAM,,Record Qualifier,Name or identifier of the laboratory or vendor who provided the test results.,Perm
22,Findings,EG,LOC,,Lead Location Used for Measurement,EGLOC,LOC,Record Qualifier,"The lead used for the measurement, examples, V1, V6, aVR, I, II, III.",Perm
23,Findings,EG,METHOD,,Method of ECG Test,EGMETHOD,EGMETHOD,Record Qualifier,Method of the ECG test. Examples: 12 LEAD STANDARD.,Perm
24,Findings,EG,BLFL,,Baseline Flag,EGBLFL,NY,Record Qualifier,Indicator used to identify a baseline value. The value should be 'Y' or null.,Exp
25,Findings,EG,DRVFL,,Derived Flag,EGDRVFL,NY,Record Qualifier,"Used to indicate a derived record. The value should be Y or null. Records which represent the average of other records, or that do not come from the CRF, or are not as originally collected or received are examples of records that would be derived for the submission datasets. If EGDRVFL=Y, then EGORRES could be null, with EGSTRESC, and (if numeric) EGSTRESN having the derived value.",Perm
26,Findings,EG,EVAL,,Evaluator,EGEVAL,,Record Qualifier,"Role of the person who provided the evaluation. Used only for results that are subjective (e.g., assigned by a person or a group). Should be null for records that contain collected or derived data. Examples: INVESTIGATOR, ADJUDICATION COMMITTEE, VENDOR.",Perm
27,Findings,EG,VISITNUM,,Visit Number,VISITNUM,,Timing,"Clinical encounter number. Numeric version of VISIT, used for sorting.",Exp
28,Findings,EG,VISIT,,Visit Name,VISIT,,Timing,1. Protocol-defined description of clinical encounter. 2. May be used in addition to VISITNUM and/or VISITDY.,Perm
29,Findings,EG,VISITDY,,Planned Study Day of Visit,VISITDY,,Timing,Planned study day of the visit based upon RFSTDTC in Demographics.,Perm
30,Findings,EG,DTC,,Date/Time of ECG,EGDTC,ISO 8601,Timing,Date of ECG.,Exp
31,Findings,EG,DY,,Study Day of ECG,EGDY,,Timing,"1. Study day of the ECG, measured as integer days. 2. Algorithm for calculations must be relative to the sponsor-defined RFSTDTC variable in Demographics.",Perm
32,Findings,EG,TPT,,Planned Time Point Name,EGTPT,,Timing,"1. Text Description of time when measurement should be taken. 2. This may be represented as an elapsed time relative to a fixed reference point, such as time of last dose. See EGTPTNUM and EGTPTREF. Examples: Start, 5 min post.",Perm
33,Findings,EG,TPTNUM,,Planned Time Point Number,EGTPTNUM,,Timing,Numerical version of EGTPT to aid in sorting.,Perm
34,Findings,EG,ELTM,,Planned Elapsed Time from Time Point Ref,EGELTM,ISO 8601,Timing,"Planned elapsed time (in ISO 8601) relative to a fixed time point reference (EGTPTREF). Not a clock time or a date time variable. Represented as an ISO 8601 duration. Examples: '-PT15M' to represent the period of 15 minutes prior to the reference point indicated by EGTPTREF, or 'PT8H' to represent the period of 8 hours after the reference point indicated by EGTPTREF.",Perm
35,Findings,EG,TPTREF,,Time Point Reference,EGTPTREF,,Timing,"Name of the fixed reference point referred to by EGELTM, EGTPTNUM, and EGTPT. Examples: PREVIOUS DOSE, PREVIOUS MEAL.",Perm
36,Findings,EG,RFTDTC,,Date/Time of Reference Time Point,EGRFTDTC,ISO 8601,Timing,"Date/time of the reference time point, EGTPTREF.",Perm
1,Findings,IE,STUDYID,,Study Identifier,STUDYID,,Identifier,Unique identifier for a study.,Req
2,Findings,IE,DOMAIN,,Domain Abbreviation,DOMAIN,,Identifier,Two-character abbreviation for the domain.,Req
3,Findings,IE,USUBJID,,Unique Subject Identifier,USUBJID,,Identifier,Identifier used to uniquely identify a subject across all studies for all applications or submissions involving the product.,Req
4,Findings,IE,SEQ,,Sequence Number,IESEQ,,Identifier,Sequence Number given to ensure uniqueness of subject records within a domain. May be any valid number.,Req
5,Findings,IE,SPID,,Sponsor-Defined Identifier,IESPID,,Identifier,Sponsor-defined reference number. Perhaps pre-printed on the CRF as an explicit line identifier or defined in the sponsor's operational database. Example: Inclusion or Exclusion criteria number from CRF.,Perm
6,Findings,IE,TESTCD,,Inclusion/Exclusion Criterion Short Name,IETESTCD,,Topic,"Short name of the criterion described in IETEST. The value in IETESTCD cannot be longer than 8 characters, nor can it start with a number (e.g.'1TEST'). IETESTCD cannot contain characters other than letters, numbers, or underscores. Examples: IN01, EX01.",Req
7,Findings,IE,TEST,,Inclusion/Exclusion Criterion,IETEST,,Synonym Qualifier,Verbatim description of the inclusion or exclusion criterion that was the exception for the subject within the study. IETEST cannot be longer than 200 characters.,Req
8,Findings,IE,CAT,,Inclusion/Exclusion Category,IECAT,IECAT,Grouping Qualifier,Used to define a category of related records across subjects.,Req
9,Findings,IE,SCAT,,Inclusion/Exclusion Subcategory,IESCAT,,Grouping Qualifier,"A further categorization of the exception criterion. Can be used to distinguish criteria for a sub-study or for to categorize as a major or minor exceptions. Examples: MAJOR, MINOR.",Perm
10,Findings,IE,ORRES,,I/E Criterion Original Result,IEORRES,NY,Result Qualifier,Original response to Inclusion/Exclusion Criterion question. Inclusion or Exclusion criterion met?,Req
11,Findings,IE,STRESC,,I/E Criterion Result in Std Format,IESTRESC,NY,Result Qualifier,Response to Inclusion/Exclusion criterion result in standard format.,Req
12,Findings,IE,VISITNUM,,Visit Number,VISITNUM,,Timing,"Clinical encounter number. Numeric version of VISIT, used for sorting.",Perm
13,Findings,IE,VISIT,,Visit Name,VISIT,,Timing,1. Protocol-defined description of clinical encounter. 2. May be used in addition to VISITNUM and/or VISITDY.,Perm
14,Findings,IE,VISITDY,,Planned Study Day of Visit,VISITDY,,Timing,Planned study day of the visit based upon RFSTDTC in Demographics.,Perm
15,Findings,IE,DTC,,Date/Time of Collection,IEDTC,ISO 8601,Timing,,Perm
16,Findings,IE,DY,,Study Day of Collection,IEDY,,Timing,"1. Study day of collection of the inclusion/exclusion exceptions, measured as integer days. 2. Algorithm for calculations must be relative to the sponsor-defined RFSTDTC variable in Demographics. This formula should be consistent across the submission.",Perm
1,Findings,LB,STUDYID,,Study Identifier,STUDYID,,Identifier,Unique identifier for a study.,Req
2,Findings,LB,DOMAIN,,Domain Abbreviation,DOMAIN,,Identifier,Two-character abbreviation for the domain.,Req
3,Findings,LB,USUBJID,,Unique Subject Identifier,USUBJID,,Identifier,Identifier used to uniquely identify a subject across all studies for all applications or submissions involving the product.,Req
4,Findings,LB,SEQ,,Sequence Number,LBSEQ,,Identifier,Sequence Number given to ensure uniqueness of subject records within a domain. May be any valid number.,Req
5,Findings,LB,GRPID,,Group ID,LBGRPID,,Identifier,Used to tie together a block of related records in a single domain for a subject.,Perm
6,Findings,LB,REFID,,Specimen ID,LBREFID,,Identifier,Internal or external specimen identifier. Example: Specimen ID.,Perm
7,Findings,LB,SPID,,Sponsor-Defined Identifier,LBSPID,,Identifier,Sponsor-defined reference number. Perhaps pre-printed on the CRF as an explicit line identifier or defined in the sponsor's operational database. Example: Line number on the Lab page.,Perm
8,Findings,LB,TESTCD,,Lab Test or Examination Short Name,LBTESTCD,LBTESTCD,Topic,"Short name of the measurement, test, or examination described in LBTEST. It can be used as a column name when converting a dataset from a vertical to a horizontal format. The value in LBTESTCD cannot be longer than 8 characters, nor can it start with a number (e.g.'1TEST'). LBTESTCD cannot contain characters other than letters, numbers, or underscores. Examples: ALT, LDH.",Req
9,Findings,LB,TEST,,Lab Test or Examination Name,LBTEST,LBTEST,Synonym Qualifier,"Verbatim name of the test or examination used to obtain the measurement or finding. Note any test normally performed by a clinical laboratory is considered a lab test. The value in LBTEST cannot be longer than 40 characters. Examples: Alanine Aminotransferase, Lactate Dehydrogenase.",Req
10,Findings,LB,CAT,,Category for Lab Test,LBCAT,,Grouping Qualifier,"Used to define a category of related records across subjects. Examples: such as HEMATOLOGY, URINALYSIS, CHEMISTRY.",Exp
11,Findings,LB,SCAT,,Subcategory for Lab Test,LBSCAT,,Grouping Qualifier,"A further categorization of a test category such as DIFFERENTIAL, COAGULATON, LIVER FUNCTION, ELECTROLYTES.",Perm
12,Findings,LB,ORRES,,Result or Finding in Original Units,LBORRES,,Result Qualifier,Result of the measurement or finding as originally received or collected.,Exp
13,Findings,LB,ORRESU,,Original Units,LBORRESU,UNIT,Variable Qualifier,Original units in which the data were collected. The unit for LBORRES. Example: g/L.,Exp
14,Findings,LB,ORNRLO,,Reference Range Lower Limit in Orig Unit,LBORNRLO,,Variable Qualifier,Lower end of reference range for continuous measurements in original units. Should be populated only for continuous results.,Exp
15,Findings,LB,ORNRHI,,Reference Range Upper Limit in Orig Unit,LBORNRHI,,Variable Qualifier,Upper end of reference range for continuous measurements in original units. Should be populated only for continuous results.,Exp
16,Findings,LB,STRESC,,Character Result/Finding in Std Format,LBSTRESC,,Result Qualifier,"Contains the result value for all findings, copied or derived from LBORRES in a standard format or standard units. LBSTRESC should store all results or findings in character format; if results are numeric, they should also be stored in numeric format in LBSTRESN. For example, if a test has results 'NONE', 'NEG', and 'NEGATIVE' in LBORRES and these results effectively have the same meaning, they could be represented in standard format in LBSTRESC as 'NEGATIVE'. For other examples, see general assumptions.",Exp
17,Findings,LB,STRESN,,Numeric Result/Finding in Standard Units,LBSTRESN,,Result Qualifier,Used for continuous or numeric results or findings in standard format; copied in numeric format from LBSTRESC. LBSTRESN should store all numeric test results or findings.,Exp
18,Findings,LB,STRESU,,Standard Units,LBSTRESU,UNIT,Variable Qualifier,Standardized unit used for LBSTRESC or LBSTRESN.,Exp
19,Findings,LB,STNRLO,,Reference Range Lower Limit-Std Units,LBSTNRLO,,Variable Qualifier,Lower end of reference range for continuous measurements for LBSTRESC/LBSTRESN in standardized units. Should be populated only for continuous results.,Exp
20,Findings,LB,STNRHI,,Reference Range Upper Limit-Std Units,LBSTNRHI,,Variable Qualifier,Upper end of reference range for continuous measurements in standardized units. Should be populated only for continuous results.,Exp
21,Findings,LB,STNRC,,Reference Range for Char Rslt-Std Units,LBSTNRC,,Variable Qualifier,"For normal range values that are character in ordinal scale or if categorical ranges were supplied (e.g., '-1 to +1', 'NEGATIVE TO TRACE').",Perm
22,Findings,LB,NRIND,,Reference Range Indicator,LBNRIND,,Variable Qualifier,"1. Indicates where the value falls with respect to reference range defined by LBORNRLO and LBORNRHI, LBSTNRLO and LBSTNRHI, or by LBSTNRC. Examples: NORMAL, ABNORMAL, HIGH, LOW. 2. Sponsors should specify in the study metadata (Comments column in the define.xml) whether LBNRIND refers to the original or standard reference ranges and results. 3. Should not be used to indicate clinical significance.",Exp
23,Findings,LB,STAT,,Completion Status,LBSTAT,ND,Record Qualifier,Used to indicate exam not done. Should be null if a result exists in LBORRES.,Perm
24,Findings,LB,REASND,,Reason Test Not Done,LBREASND,,Record Qualifier,"Describes why a measurement or test was not performed such as BROKEN EQUIPMENT, SUBJECT REFUSED, or SPECIMEN LOST. Used in conjunction with LBSTAT when value is NOT DONE.",Perm
25,Findings,LB,NAM,,Vendor Name,LBNAM,,Record Qualifier,The name or identifier of the laboratory that performed the test.,Perm
26,Findings,LB,LOINC,,LOINC Code,LBLOINC,,Synonym Qualifier,1. Dictionary-derived LOINC Code for LBTEST. 2. The sponsor is expected to provide the dictionary name and version used to map the terms utilizing the define.xml external codelist attributes,Perm
27,Findings,LB,SPEC,,Specimen Type,LBSPEC,,Record Qualifier,"Defines the type of specimen used for a measurement. Examples: SERUM, PLASMA, URINE.",Perm
28,Findings,LB,SPCCND,,Specimen Condition,LBSPCCND,,Record Qualifier,"Free or standardized text describing the condition of the specimen e.g. HEMOLYZED, ICTERIC, LIPEMIC etc.",Perm
29,Findings,LB,METHOD,,Method of Test or Examination,LBMETHOD,,Record Qualifier,"Method of the test or examination. Examples: EIA (Enzyme Immunoassay), ELECTROPHORESIS, DIPSTICK",Perm
30,Findings,LB,BLFL,,Baseline Flag,LBBLFL,NY,Record Qualifier,Indicator used to identify a baseline value. The value should be 'Y' or null.,Exp
31,Findings,LB,FAST,,Fasting Status,LBFAST,NY,Record Qualifier,"Indicator used to identify fasting status such as Y, N, U, or null if not relevant.",Perm
32,Findings,LB,DRVFL,,Derived Flag,LBDRVFL,NY,Record Qualifier,"Used to indicate a derived record. The value should be Y or null. Records that represent the average of other records, or do not come from the CRF, or are not as originally received or collected are examples of records that might be derived for the submission datasets. If LBDRVFL=Y, then LBORRES may be null, with LBSTRESC, and (if numeric) LBSTRESN having the derived value.",Perm
33,Findings,LB,TOX,,Toxicity,LBTOX,,Variable Qualifier,"Description of toxicity quantified by LBTOXGR. The sponsor is expected to provide the name of the scale and version used to map the terms, utilizing the define.xml external codelist attributes.",Perm
34,Findings,LB,TOXGR,,Standard Toxicity Grade,LBTOXGR,,Variable Qualifier,"Records toxicity grade value using a standard toxicity scale (such as the NCI CTCAE). If value is from a numeric scale, represent only the number (e.g., '2' and not 'Grade 2').",Perm
35,Findings,LB,VISITNUM,,Visit Number,VISITNUM,,Timing,"Clinical encounter number. Numeric version of VISIT, used for sorting.",Exp
36,Findings,LB,VISIT,,Visit Name,VISIT,,Timing,1. Protocol-defined description of clinical encounter. 2. May be used in addition to VISITNUM and/or VISITDY.,Perm
37,Findings,LB,VISITDY,,Planned Study Day of Visit,VISITDY,,Timing,Planned study day of the visit based upon RFSTDTC in Demographics.,Perm
38,Findings,LB,DTC,,Date/Time of Specimen Collection,LBDTC,ISO 8601,Timing,,Exp
39,Findings,LB,ENDTC,,End Date/Time of Specimen Collection,LBENDTC,ISO 8601,Timing,,Perm
40,Findings,LB,DY,,Study Day of Specimen Collection,LBDY,,Timing,"1. Study day of specimen collection, measured as integer days.  2. Algorithm for calculations must be relative to the sponsor-defined RFSTDTC variable in Demographics. This formula should be consistent across the submission.",Perm
41,Findings,LB,TPT,,Planned Time Point Name,LBTPT,,Timing,"1. Text Description of time when specimen should be taken. 2. This may be represented as an elapsed time relative to a fixed reference point, such as time of last dose. See LBTPTNUM and LBTPTREF. Examples: Start, 5 min post.",Perm
42,Findings,LB,TPTNUM,,Planned Time Point Number,LBTPTNUM,,Timing,Numerical version of LBTPT to aid in sorting.,Perm
43,Findings,LB,ELTM,,Planned Elapsed Time from Time Point Ref,LBELTM,ISO 8601,Timing,"Planned Elapsed time (in ISO 8601) relative to a planned fixed reference (LBTPTREF). This variable is useful where there are repetitive measures. Not a clock time or a date time variable. Represented as an ISO 8601 duration. Examples: '-PT15M' to represent the period of 15 minutes prior to the reference point indicated by LBTPTREF, or 'PT8H' to represent the period of 8 hours after the reference point indicated by LBTPTREF.",Perm
44,Findings,LB,TPTREF,,Time Point Reference,LBTPTREF,,Timing,"Name of the fixed reference point referred to by LBELTM, LBTPTNUM, and LBTPT. Examples: PREVIOUS DOSE, PREVIOUS MEAL.",Perm
45,Findings,LB,RFTDTC,,Date/Time of Reference Time Point,LBRFTDTC,ISO 8601,Timing,"Date/time of the reference time point, LBTPTREF.",Perm
1,Findings,PE,STUDYID,,Study Identifier,STUDYID,,Identifier,Unique identifier for a study.,Req
2,Findings,PE,DOMAIN,,Domain Abbreviation,DOMAIN,,Identifier,Two-character abbreviation for the domain.,Req
3,Findings,PE,USUBJID,,Unique Subject Identifier,USUBJID,,Identifier,Identifier used to uniquely identify a subject across all studies for all applications or submissions involving the product.,Req
4,Findings,PE,SEQ,,Sequence Number,PESEQ,,Identifier,Sequence Number given to ensure uniqueness of subject records within a domain. May be any valid number.,Req
5,Findings,PE,GRPID,,Group ID,PEGRPID,,Identifier,Used to tie together a block of related records in a single domain for a subject.,Perm
6,Findings,PE,SPID,,Sponsor-Defined Identifier,PESPID,,Identifier,Sponsor-defined reference number. Perhaps pre-printed on the CRF as an explicit line identifier or defined in the sponsor's operational database. Example: Line number on a CRF.,Perm
7,Findings,PE,TESTCD,,Body System Examined Short Name,PETESTCD,,Topic,"Short name of the measurement, test, or examination described in PETEST. It can be used as a column name when converting a dataset from a vertical to a horizontal format. The value in PETESTCD cannot be longer than 8 characters, nor can it start with a number (e.g.'1TEST'). PETESTCD cannot contain characters other than letters, numbers, or underscores.",Req
8,Findings,PE,TEST,,Body System Examined,PETEST,,Synonym Qualifier,"Verbatim term part of the body examined. The value in PETEST cannot be longer than 40 characters. Examples: Cardiovascular and Respiratory. For subject-level exam, value should be 'Physical Examination'.",Req
9,Findings,PE,MODIFY,,Modified Reported Term,PEMODIFY,,Synonym Qualifier,"If PEORRES is modified as part of a defined procedure, then PEMODIFY will contain the modified text.",Perm
10,Findings,PE,CAT,,Category for Examination,PECAT,,Grouping Qualifier,"Used to define a category of examination. Examples: GENERAL, NEUROLOGICAL.",Perm
11,Findings,PE,SCAT,,Subcategory for Examination,PESCAT,,Grouping Qualifier,A further categorization of the examination. Used if needed to add further detail to PECAT.,Perm
12,Findings,PE,BODSYS,,Body System or Organ Class,PEBODSYS,,Result Qualifier,"1. Body system or organ class ( MedDRA SOC) that is involved in a measurement from the standard hierarchy (e.g., MedDRA).",Perm
13,Findings,PE,ORRES,,Verbatim Examination Finding,PEORRES,,Result Qualifier,"Text description of any abnormal findings. If the examination was completed and there were no abnormal findings, the value should be NORMAL. If the examination was not performed on a particular body system, or at the subject level, then the value should be null, and NOT DONE should appear in PESTAT.",Exp
14,Findings,PE,ORRESU,,Original Units,PEORRESU,UNIT,Variable Qualifier,Original units in which the data were collected. The unit for PEORRES.,Perm
15,Findings,PE,STRESC,,Character Result/Finding in Std Format,PESTRESC,,Result Qualifier,"If there are findings for a body system, then either the dictionary preferred term (if findings are coded using a dictionary) or PEORRES (if findings are not coded) should appear here. If PEORRES is null, PESTRESC should be null",Exp
16,Findings,PE,STAT,,Completion Status,PESTAT,ND,Record Qualifier,Used to indicate exam not done. Should be null if a result exists in PEORRES.,Perm
17,Findings,PE,REASND,,Reason Not Examined,PEREASND,,Record Qualifier,Describes why an examination was not performed or why a body system was not examined. Example: SUBJECT REFUSED. Used in conjunction with STAT when value is NOT DONE.,Perm
18,Findings,PE,LOC,,Location of Physical Exam Finding,PELOC,LOC,Record Qualifier,Can be used to specify where a physical exam finding occurred. Example: LEFT ARM for skin rash.,Perm
19,Findings,PE,METHOD,,Method of Test or Examination,PEMETHOD,,Record Qualifier,"Method of the test or examination. Examples: XRAY, MRI.",Perm
20,Findings,PE,EVAL,,Evaluator,PEEVAL,,Record Qualifier,"Role of the person who provided the evaluation. Used only for results that are subjective (e.g., assigned by a person or a group). Should be null for records that contain collected or derived data. Examples: INVESTIGATOR, ADJUDICATION COMMITTEE, VENDOR.",Perm
21,Findings,PE,VISITNUM,,Visit Number,VISITNUM,,Timing,"Clinical encounter number. Numeric version of VISIT, used for sorting.",Exp
22,Findings,PE,VISIT,,Visit Name,VISIT,,Timing,1. Protocol-defined description of clinical encounter. 2. May be used in addition to VISITNUM and/or VISITDY.,Perm
23,Findings,PE,VISITDY,,Planned Study Day of Visit,VISITDY,,Timing,Planned study day of the visit based upon RFSTDTC in Demographics.,Perm
24,Findings,PE,DTC,,Date/Time of Examination,PEDTC,ISO 8601,Timing,,Exp
25,Findings,PE,DY,,Study Day of Examination,PEDY,,Timing,"1. Study day of physical exam, measured as integer days. 2. Algorithm for calculations must be relative to the sponsor-defined RFSTDTC variable in Demographics.",Perm
1,Findings,QS,STUDYID,,Study Identifier,STUDYID,,Identifier,Unique identifier for a study.,Req
2,Findings,QS,DOMAIN,,Domain Abbreviation,DOMAIN,,Identifier,Two-character abbreviation for the domain.,Req
3,Findings,QS,USUBJID,,Unique Subject Identifier,USUBJID,,Identifier,Identifier used to uniquely identify a subject across all studies for all applications or submissions involving the product.,Req
4,Findings,QS,SEQ,,Sequence Number,QSSEQ,,Identifier,Sequence Number given to ensure uniqueness of subject records within a domain. May be any valid number.,Req
5,Findings,QS,GRPID,,Group ID,QSGRPID,,Identifier,Used to tie together a block of related records in a single domain for a subject.,Perm
6,Findings,QS,SPID,,Sponsor-Defined Identifier,QSSPID,,Identifier,Sponsor-defined reference number. Perhaps pre-printed on the CRF as an explicit line identifier or defined in the sponsor's operational database. Example: Question number on a questionnaire.,Perm
7,Findings,QS,TESTCD,,Question Short Name,QSTESTCD,,Topic,"Topic variable for QS. Short name for the value in QSTEST, which can be used as a column name when converting the dataset from a vertical format to a horizontal format. The value in QSTESTCD cannot be longer than 8 characters, nor can it start with a number (e.g.'1TEST'). QSTESTCD cannot contain characters other than letters, numbers, or underscores. Examples: COG01, GH1, PF1.",Req
8,Findings,QS,TEST,,Question Name,QSTEST,,Synonym Qualifier,"Verbatim name of the question or group of questions used to obtain the measurement or finding. The value in QSTEST cannot be longer than 40 characters. Example: In General, How is Your Health?",Req
9,Findings,QS,CAT,,Category of Question,QSCAT,,Grouping Qualifier,"Used to define a category of related records that will be meaningful to the Reviewer. Examples: HAMILTON DEPRESSION SCALE, SF36, ADAS.",Req
10,Findings,QS,SCAT,,Subcategory for Question,QSSCAT,,Grouping Qualifier,"A further categorization of the questions within the category. Examples: MENTAL HEALTH DOMAIN, DEPRESSION DOMAIN, WORD RECALL.",Perm
11,Findings,QS,ORRES,,Finding in Original Units,QSORRES,,Result Qualifier,"Finding as originally received or collected (e.g. RARELY, SOMETIMES). When sponsors apply codelist to indicate the code values are statistically meaningful standardized scores, which are defined by sponsors or by valid methodologies such as SF36 questionnaires, QSORRES will contain the decode format, and QSSTRESC and QSSTRESN may contain the standardized code values or scores.",Exp
12,Findings,QS,ORRESU,,Original Units,QSORRESU,UNIT,Variable Qualifier,"Original units in which the data were collected. The unit for QSORRES, such as minutes or seconds or the units associated with a visual analog scale.",Perm
13,Findings,QS,STRESC,,Character Result/Finding in Std Format,QSSTRESC,,Result Qualifier,"Contains the finding for all questions or sub-scores, copied or derived from QSORRES in a standard format or standard units. QSSTRESC should store all findings in character format; if findings are numeric, they should also be stored in numeric format in QSSTRESN. If question scores are derived from the original finding, then the standard format is the score. Examples: 0, 1. When sponsors apply codelist to indicate the code values are statistically meaningful standardized scores, which are defined by sponsors or by valid methodologies such as SF36 questionnaires, QSORRES will contain the decode format, and QSSTRESC and QSSTRESN may contain the standardized code values or scores.",Exp
14,Findings,QS,STRESN,,Numeric Finding in Standard Units,QSSTRESN,,Result Qualifier,Used for continuous or numeric findings in standard format; copied in numeric format from QSSTRESC. QSSTRESN should store all numeric results or findings.,Perm
15,Findings,QS,STRESU,,Standard Units,QSSTRESU,UNIT,Variable Qualifier,Standardized unit used for QSSTRESC or QSSTRESN.,Perm
16,Findings,QS,STAT,,Completion Status,QSSTAT,ND,Record Qualifier,Used to indicate a questionnaire or response to a questionnaire was not done. Should be null if a result exists in QSORRES.,Perm
17,Findings,QS,REASND,,Reason Not Performed,QSREASND,,Record Qualifier,Describes why a question was not answered. Used in conjunction with QSSTAT when value is NOT DONE. Example: SUBJECT REFUSED.,Perm
18,Findings,QS,BLFL,,Baseline Flag,QSBLFL,NY,Record Qualifier,Indicator used to identify a baseline value. The value should be 'Y' or null.,Exp
19,Findings,QS,DRVFL,,Derived Flag,QSDRVFL,NY,Record Qualifier,"Used to indicate a derived record. The value should be Y or null. Records that represent the average of other records or questionnaire sub-scores that do not come from the CRF are examples of records that would be derived for the submission datasets. If QSDRVFL=Y, then QSORRES may be null with QSSTRESC and (if numeric) QSSTRESN having the derived value.",Perm
20,Findings,QS,VISITNUM,,Visit Number,VISITNUM,,Timing,"Clinical encounter number. Numeric version of VISIT, used for sorting.",Exp
21,Findings,QS,VISIT,,Visit Name,VISIT,,Timing,1. Protocol-defined description of clinical encounter. 2. May be used in addition to VISITNUM and/or VISITDY.,Perm
22,Findings,QS,VISITDY,,Planned Study Day of Visit,VISITDY,,Timing,Planned study day of the visit based upon RFSTDTC in Demographics.,Perm
23,Findings,QS,DTC,,Date/Time of Finding,QSDTC,ISO 8601,Timing,Date of questionnaire.,Exp
24,Findings,QS,DY,,Study Day of Finding,QSDY,,Timing,"1. Study day of finding collection, measured as integer days. 2. Algorithm for calculations must be relative to the sponsor-defined RFSTDTC variable in Demographics.",Perm
25,Findings,QS,TPT,,Planned Time Point Name,QSTPT,,Timing,"1. Text Description of time when questionnaire should be administered. 2. This may be represented as an elapsed time relative to a fixed reference point, such as time of last dose. See QSTPTNUM and QSTPTREF.",Perm
26,Findings,QS,TPTNUM,,Planned Time Point Number,QSTPTNUM,,Timing,Numerical version of QSTPT to aid in sorting.,Perm
27,Findings,QS,ELTM,,Planned Elapsed Time from Time Point Ref,QSELTM,ISO 8601,Timing,"Planned Elapsed time (in ISO 8601) relative to a planned fixed reference (QSTPTREF). This variable is useful where there are repetitive measures. Not a clock time or a date time variable. Represented as an ISO 8601 duration. Examples: '-PT15M' to represent the period of 15 minutes prior to the reference point indicated by QSTPTREF, or 'PT8H' to represent the period of 8 hours after the reference point indicated by QSTPTREF.",Perm
28,Findings,QS,TPTREF,,Time Point Reference,QSTPTREF,,Timing,"Name of the fixed reference point referred to by QSELTM, QSTPTNUM, and QSTPT. Examples: PREVIOUS DOSE, PREVIOUS MEAL.",Perm
29,Findings,QS,RFTDTC,,Date/Time of Reference Time Point,QSRFTDTC,ISO 8601,Timing,"Date/time of the reference time point, LBTPTREF.",Perm
30,Findings,QS,EVLINT,,Evaluation Interval,QSEVLINT,ISO 8601,Timing,Evaluation Interval associated with a QSTEST question represented in ISO 8601 character format. Example: '-P2Y' to represent an interval of 2 years in the question 'Have you experienced any episodes in the past 2 years?',Perm
1,Findings,SC,STUDYID,,Study Identifier,STUDYID,,Identifier,Unique identifier for a study.,Req
2,Findings,SC,DOMAIN,,Domain Abbreviation,DOMAIN,,Identifier,Two-character abbreviation for the domain.,Req
3,Findings,SC,USUBJID,,Unique Subject Identifier,USUBJID,,Identifier,Identifier used to uniquely identify a subject across all studies for all applications or submissions involving the product.,Req
4,Findings,SC,SEQ,,Sequence Number,SCSEQ,,Identifier,Sequence Number given to ensure uniqueness of subject records within a domain. May be any valid number.,Req
5,Findings,SC,GRPID,,Group ID,SCGRPID,,Identifier,Used to tie together a block of related records in a single domain for a subject.,Perm
6,Findings,SC,SPID,,Sponsor-Defined Identifier,SCSPID,,Identifier,Sponsor-defined reference number. Perhaps pre-printed on the CRF as an explicit line identifier or defined in the sponsor's operational database.,Perm
7,Findings,SC,TESTCD,,Subject Characteristic Short Name,SCTESTCD,SCTEST,Topic,"Short name of the measurement, test, or examination described in SCTEST. It can be used as a column name when converting a dataset from a vertical to a horizontal format. The value in SCTESTCD cannot be longer than 8 characters, nor can it start with a number (e.g.'1TEST'). SCTESTCD cannot contain characters other than letters, numbers, or underscores. Example: SUBJINIT, EYECD.",Req
8,Findings,SC,TEST,,Subject Characteristic,SCTEST,,Synonym Qualifier,"Verbatim name of the test or examination used to obtain the measurement or finding. The value in SCTEST cannot be longer than 40 characters. Examples: Subject Initials, Eye Color.",Req
9,Findings,SC,CAT,,Category for Subject Characteristic,SCCAT,,Grouping Qualifier,Used to define a category of related records.,Perm
10,Findings,SC,SCAT,,Subcategory for Subject Characteristic,SCSCAT,,Grouping Qualifier,A further categorization of the subject characteristic.,Perm
11,Findings,SC,ORRES,,Result or Finding in Original Units,SCORRES,,Result Qualifier,Result of the subject characteristic as originally received or collected.,Exp
12,Findings,SC,ORRESU,,Original Units,SCORRESU,UNIT,Variable Qualifier,Original Unit in which the data were collected. The unit for SCORRES.,Perm
13,Findings,SC,STRESC,,Character Result/Finding in Std Format,SCSTRESC,,Result Qualifier,"Contains the result value for all findings, copied or derived from SCORRES in a standard format or standard units. SCSTRESC should store all results or findings in character format; if results are numeric, they should also be stored in numeric format in SCSTRESN. For example, if a test has results 'NONE', 'NEG', and 'NEGATIVE' in SCORRES and these results effectively have the same meaning, they could be represented in standard format in SCSTRESC as 'NEGATIVE'.",Exp
14,Findings,SC,STRESN,,Numeric Result/Finding in Standard Units,SCSTRESN,,Result Qualifier,Used for continuous or numeric results or findings in standard format; copied in numeric format from SCSTRESC. SCSTRESN should store all numeric test results or findings.,Perm
15,Findings,SC,STRESU,,Standard Units,SCSTRESU,UNIT,Variable Qualifier,Standardized unit used for SCSTRESC or SCSTRESN.,Perm
16,Findings,SC,STAT,,Completion Status,SCSTAT,ND,Record Qualifier,Used to indicate that the measurement was not done. Should be null if a result exists in SCORRES.,Perm
17,Findings,SC,REASND,,Reason Not Performed,SCREASND,,Record Qualifier,Describes why the observation has no result. Example: subject refused. Used in conjunction with SCSTAT when value is NOT DONE.,Perm
18,Findings,SC,DTC,,Date/Time of Collection,SCDTC,ISO 8601,Timing,,Perm
19,Findings,SC,DY,,Study Day of Examination,SCDY,,Timing,"1. Study day of collection, measured as integer days. 2. Algorithm for calculations must be relative to the sponsor-defined RFSTDTC variable in Demographics.",Perm
1,Findings,VS,STUDYID,,Study Identifier,STUDYID,,Identifier,Unique identifier for a study.,Req
2,Findings,VS,DOMAIN,,Domain Abbreviation,DOMAIN,,Identifier,Two-character abbreviation for the domain.,Req
3,Findings,VS,USUBJID,,Unique Subject Identifier,USUBJID,,Identifier,Identifier used to uniquely identify a subject across all studies for all applications or submissions involving the product.,Req
4,Findings,VS,SEQ,,Sequence Number,VSSEQ,,Identifier,Sequence Number given to ensure uniqueness of subject records within a domain. May be any valid number.,Req
5,Findings,VS,GRPID,,Group ID,VSGRPID,,Identifier,Used to tie together a block of related records in a single domain for a subject.,Perm
6,Findings,VS,SPID,,Sponsor-Defined Identifier,VSSPID,,Identifier,Sponsor-defined reference number. Perhaps pre-printed on the CRF as an explicit line identifier or defined in the sponsor's operational database.,Perm
7,Findings,VS,TESTCD,,Vital Signs Test Short Name,VSTESTCD,VSTESTCD,Topic,"Short name of the measurement, test, or examination described in VSTEST. It can be used as a column name when converting a dataset from a vertical to a horizontal format. The value in VSTESTCD cannot be longer than 8 characters, nor can it start with a number (e.g.'1TEST'). VSTESTCD cannot contain characters other than letters, numbers, or underscores. Examples: SYSBP, DIABP, BMI.",Req
8,Findings,VS,TEST,,Vital Signs Test Name,VSTEST,VSTEST,Synonym Qualifier,"Verbatim name of the test or examination used to obtain the measurement or finding. The value in VSTEST cannot be longer than 40 characters. Examples: Systolic Blood Pressure, Diastolic Blood Pressure, Body Mass Index.",Req
9,Findings,VS,CAT,,Category for Vital Signs,VSCAT,,Grouping Qualifier,Used to define a category of related records.,Perm
10,Findings,VS,SCAT,,Subcategory for Vital Signs,VSSCAT,,Grouping Qualifier,A further categorization of a measurement or examination.,Perm
11,Findings,VS,POS,,Vital Signs Position of Subject,VSPOS,POSITION,Record Qualifier,"Position of the subject during a measurement or examination. Examples: SUPINE, STANDING, SITTING.",Perm
12,Findings,VS,ORRES,,Result or Finding in Original Units,VSORRES,,Result Qualifier,Result of the vital signs measurement as originally received or collected.,Exp
13,Findings,VS,ORRESU,,Original Units,VSORRESU,VSRESU,Variable Qualifier,"Original units in which the data were collected. The unit for VSORRES. Examples: IN, LB, BEATS/MIN.",Exp
14,Findings,VS,STRESC,,Character Result/Finding in Std Format,VSSTRESC,,Result Qualifier,"Contains the result value for all findings, copied or derived from VSORRES in a standard format or standard units. VSSTRESC should store all results or findings in character format; if results are numeric, they should also be stored in numeric format in VSSTRESN. For example, if a test has results 'NONE', 'NEG', and 'NEGATIVE' in VSORRES and these results effectively have the same meaning, they could be represented in standard format in VSSTRESC as 'NEGATIVE'.",Exp
15,Findings,VS,STRESN,,Numeric Result/Finding in Standard Units,VSSTRESN,,Result Qualifier,Used for continuous or numeric results or findings in standard format; copied in numeric format from VSSTRESC. VSSTRESN should store all numeric test results or findings.,Exp
16,Findings,VS,STRESU,,Standard Units,VSSTRESU,VSRESU,Variable Qualifier,Standardized unit used for VSSTRESC and VSSTRESN.,Exp
17,Findings,VS,STAT,,Completion Status,VSSTAT,ND,Record Qualifier,Used to indicate that a vital sign measurement was not done. Should be null if a result exists in VSORRES.,Perm
18,Findings,VS,REASND,,Reason Not Performed,VSREASND,,Record Qualifier,Describes why a measurement or test was not performed. Examples: BROKEN EQUIPMENT or SUBJECT REFUSED. Used in conjunction with VSSTAT when value is NOT DONE.,Perm
19,Findings,VS,LOC,,Location of Vital Signs Measurement,VSLOC,LOC,Record Qualifier,Location relevant to the collection of Vital Signs measurement. Example: LEFT ARM for blood pressure.,Perm
20,Findings,VS,BLFL,,Baseline Flag,VSBLFL,NY,Record Qualifier,Indicator used to identify a baseline value. The value should be 'Y' or null.,Exp
21,Findings,VS,DRVFL,,Derived Flag,VSDRVFL,NY,Record Qualifier,"Used to indicate a derived record. The value should be Y or null. Records which represent the average of other records or which do not come from the CRF are examples of records that would be derived for the submission datasets. If VSDRVFL=Y, then VSORRES may be null, with VSSTRESC and (if numeric) VSSTRESN having the derived value.",Perm
22,Findings,VS,VISITNUM,,Visit Number,VISITNUM,,Timing,"Clinical encounter number. Numeric version of VISIT, used for sorting.",Exp
23,Findings,VS,VISIT,,Visit Name,VISIT,,Timing,1. Protocol-defined description of clinical encounter. 2. May be used in addition to VISITNUM and/or VISITDY.,Perm
24,Findings,VS,VISITDY,,Planned Study Day of Visit,VISITDY,,Timing,Planned study day of the visit based upon RFSTDTC in Demographics.,Perm
25,Findings,VS,DTC,,Date/Time of Measurements,VSDTC,ISO 8601,Timing,,Exp
26,Findings,VS,DY,,Study Day of Vital Signs,VSDY,,Timing,"1. Study day of vital signs measurements, measured as integer days. 2. Algorithm for calculations must be relative to the sponsor-defined RFSTDTC variable in Demographics.",Perm
27,Findings,VS,TPT,,Planned Time Point Name,VSTPT,,Timing,"1. Text Description of time when measurement should be taken. 2. This may be represented as an elapsed time relative to a fixed reference point, such as time of last dose. See VSTPTNUM and VSTPTREF. Examples: Start, 5 min post.",Perm
28,Findings,VS,TPTNUM,,Planned Time Point Number,VSTPTNUM,,Timing,Numerical version of VSTPT to aid in sorting.,Perm
29,Findings,VS,ELTM,,Planned Elapsed Time from Time Point Ref,VSELTM,ISO 8601,Timing,"Planned Elapsed time (in ISO 8601) relative to a planned fixed reference (VSTPTREF). This variable is useful where there are repetitive measures. Not a clock time or a date time variable. Represented as an ISO 8601 Duration. Examples: '-PT15M' to represent the period of 15 minutes prior to the reference point indicated by VSTPTREF, or 'PT8H' to represent the period of 8 hours after the reference point indicated by VSTPTREF.",Perm
30,Findings,VS,TPTREF,,Time Point Reference,VSTPTREF,,Timing,"Name of the fixed reference point referred to by VSELTM, VSTPTNUM, and VSTPT. Examples: PREVIOUS DOSE, PREVIOUS MEAL.",Perm
31,Findings,VS,RFTDTC,,Date/Time of Reference Time Point,VSRFTDTC,ISO 8601,Timing,"Date/time of the reference time point, LBTPTREF.",Perm
1,Findings,DA,STUDYID,,Study Identifier,STUDYID,,Identifier,Unique identifier for a study.,Req
2,Findings,DA,DOMAIN,,Domain Abbreviation,DOMAIN,,Identifier,Two-character abbreviation for the domain.,Req
3,Findings,DA,USUBJID,,Unique Subject Identifier,USUBJID,,Identifier,Identifier used to uniquely identify a subject across all studies for all applications or submissions involving the product.,Req
4,Findings,DA,SEQ,,Sequence Number,DASEQ,,Identifier,Sequence Number given to ensure uniqueness of subject records within a domain. May be any valid number.,Req
5,Findings,DA,GRPID,,Group ID,DAGRPID,,Identifier,Used to tie together a block of related records in a single domain for a subject.,Perm
6,Findings,DA,REFID,,Reference ID,DAREFID,,Identifier,Internal or external identifier such as label number.,Perm
7,Findings,DA,SPID,,Sponsor-Defined Identifier,DASPID,,Identifier,"Sponsor-defined reference number. Perhaps pre-printed on the CRF as an explicit line identifier or defined in the sponsor's operational database. Examples: Line number on the Drug Accountability page, drug label code.",Perm
8,Findings,DA,TESTCD,,Short Name of Accountability Assessment,DATESTCD,,Topic,"Short character value for DATEST used as a column name when converting a dataset from a vertical format to a horizontal format. The short value can be up to 8 characters and cannot begin with a number or contain characters other than letters, numbers or underscores. Example: DISPAMT, RETAMT.",Req
9,Findings,DA,TEST,,Name of Accountability Assessment,DATEST,,Synonym Qualifier,"Verbatim name, corresponding to the topic variable, of the test or examination used to obtain the drug accountability assessment. The value in DATEST cannot be longer than 40 characters. Example: Dispensed Amount, Returned Amount.",Req
10,Findings,DA,CAT,,Category of Assessment,DACAT,,Grouping Qualifier,"Used to define a category of related records. Examples: STUDY MEDICATION, RESCUE MEDICATION.",Perm
11,Findings,DA,SCAT,,Subcategory of Assessment,DASCAT,,Grouping Qualifier,Used to define a further categorization level for a group of related records.,Perm
12,Findings,DA,ORRES,,Assessment Result in Original Units,DAORRES,,Result Qualifier,Result of the Drug Accountability assessment as originally received or collected.,Exp
13,Findings,DA,ORRESU,,Original Units,DAORRESU,UNIT,Variable Qualifier,Unit for DAORRES.,Perm
14,Findings,DA,STRESC,,Assessment Result in Std Format,DASTRESC,,Result Qualifier,"Contains the result value for all Drug Accountability assessments, copied or derived from DAORRES in a standard format or in standard units. DASTRESC should store all results or findings in character format; if results are numeric, they should also be stored in numeric format in DASTRESN.",Exp
15,Findings,DA,STRESN,,Numeric Result/Finding in Standard Units,DASTRESN,,Result Qualifier,Used for continuous or numeric results or findings in standard format; copied in numeric format from DASTRESC. DASTRESN should store all numeric test results or findings.,Perm
16,Findings,DA,STRESU,,Assessment Standard Units,DASTRESU,UNIT,Variable Qualifier,Standardized units used for DASTRESC and DASTRESN.,Perm
17,Findings,DA,STAT,,Completion Status,DASTAT,ND,Record Qualifier,Used to indicate that a drug accountability assessment was not done. Should be null or have a value of NOT DONE.,Perm
18,Findings,DA,REASND,,Reason Not Performed,DAREASND,,Record Qualifier,Reason not done. Used in conjunction with DASTAT when value is NOT DONE.,Perm
19,Findings,DA,VISITNUM,,Visit Number,VISITNUM,,Timing,"Clinical encounter number. Numeric version of VISIT, used for sorting.",Exp
20,Findings,DA,VISIT,,Visit Name,VISIT,,Timing,1. Protocol-defined description of clinical encounter. 2. May be used in addition to VISITNUM and/or VISITDY.,Perm
21,Findings,DA,VISITDY,,Planned Study Day of Visit,VISITDY,,Timing,Planned study day of the visit based upon RFSTDTC in Demographics.,Perm
22,Findings,DA,DTC,,Date/Time of Accountability Assessment,DADTC,ISO 8601,Timing,,Exp
23,Findings,DA,DY,,Study Day of Accountability Assessment,DADY,,Timing,"1. Study day of drug accountability assessment, measured as integer days. 2. Algorithm for calculations must be relative to the sponsor-defined RFSTDTC variable in Demographics.",Perm
1,Findings,MB,STUDYID,,Study Identifier,STUDYID,,Identifier,Unique identifier for a study.,Req
2,Findings,MB,DOMAIN,,Domain Abbreviation,DOMAIN,,Identifier,Two-character abbreviation for the domain.,Req
3,Findings,MB,USUBJID,,Unique Subject Identifier,USUBJID,,Identifier,Identifier used to uniquely identify a subject across all studies for all applications or submissions involving the product.,Req
4,Findings,MB,SEQ,,Sequence Number,MBSEQ,,Identifier,Sequence Number given to ensure uniqueness of subject records within a domain. May be any valid number.,Req
5,Findings,MB,GRPID,,Group ID,MBGRPID,,Identifier,"Used to tie together a block of related records in a single domain to support relationships within the domain and between domains. In MB, used to link to findings about organisms which are stored in MS.",Exp
6,Findings,MB,REFID,,Reference ID,MBREFID,,Identifier,Internal or external specimen identifier. Example: Specimen ID,Perm
7,Findings,MB,SPID,,Sponsor-Defined Identifier,MBSPID,,Identifier,"Sponsor-defined reference number. Perhaps pre-printed on the CRF as an explicit line identifier or defined in the sponsor's operational database. Example: ORGANISM IDENTIFIER. For organism identification, MBSPID would remain the same each time the same organism is identified in a new specimen.",Perm
8,Findings,MB,TESTCD,,Microbiology Test or Finding Short Name,MBTESTCD,,Topic,"Short name of the measurement, test, or finding described in MBTEST. It can be used as a column name when converting a dataset from a vertical to a horizontal format. The value in MBTESTCD cannot be longer than 8 characters, nor can it start with a number (e.g., '1TEST'). MBTESTCD cannot contain characters other than letters, numbers, or underscores. Examples for GRAM STAIN findings: GMNROD, GMNCOC, GMSQEPCE, GMPMNLOW. Examples for CULTURE PLATE findings: ORGANISM.",Req
9,Findings,MB,TEST,,Microbiology Test or Finding Name,MBTEST,,Synonym Qualifier,"Verbatim name of the test or examination used to obtain the measurement or finding. The value in MBTEST cannot be longer than 40 characters. Examples: GRAM NEGATIVE RODS, GRAM NEGATIVE COCCI, SQUAMOUS EPITHELIAL CELLS, PMN PER FIELD LOW, ORGANISM PRESENT",Req
10,Findings,MB,CAT,,Category for Microbiology Finding,MBCAT,,Grouping Qualifier,Used to define a category of related records.,Perm
11,Findings,MB,SCAT,,Subcategory for Microbiology Finding,MBSCAT,,Grouping Qualifier,Used to define a further categorization of MBCAT.,Perm
12,Findings,MB,ORRES,,Result or Finding in Original Units,MBORRES,,Result Qualifier,"Result of the Microbiology measurement or finding as originally received or collected. Examples for GRAM STAIN findings: +3 MODERATE, +2 FEW, <10. Examples for CULTURE PLATE (ORGANISM) findings: KLEBSIELLA PNEUMONIAE, STREPTOCOCCUS PNEUMONIAE PENICILLIN RESISTANT.",Exp
13,Findings,MB,ORRESU,,Original Units,MBORRESU,UNIT,Variable Qualifier,Original unit for MBORRES. Example: mcg/mL,Perm
14,Findings,MB,STRESC,,Character Result/Finding in Std Format,MBSTRESC,,Result Qualifier,"Contains the result value for all findings, copied or derived from MBORRES in a standard format or standard units. MBSTRESC should store all results or findings in character format; if results are numeric, they should also be stored in numeric format in MBSTRESN. For example, if a test has results '+3 MODERATE', 'MOD', and 'MODERATE' in MBORRES and these results effectively have the same meaning, they could be represented in standard format in MBSTRESC as 'MODERATE'.",Exp
15,Findings,MB,STRESN,,Numeric Result/Finding in Standard Units,MBSTRESN,,Result Qualifier,Used for continuous or numeric results or findings in standard format; copied in numeric format from MBSTRESC. MBSTRESN should store all numeric test results or findings.,Perm
16,Findings,MB,STRESU,,Standard Units,MBSTRESU,UNIT,Variable Qualifier,Standardized unit used for MBSTRESC and MBSTRESN.,Perm
17,Findings,MB,RESCAT,,Result Category,MBRESCAT,,Variable Qualifier,"Used to categorize the result of a finding in a standard format. Example for ORGANISM finding: INFECTING, COLONIZER, CONTAMINANT, or NORMAL FLORA.",Exp
18,Findings,MB,STAT,,Completion Status,MBSTAT,ND,Record Qualifier,"Used to indicate Microbiology was not done, or a test was not done. Should be null or have a value of NOT DONE.",Perm
19,Findings,MB,REASND,,Reason Microbiology Not Performed,MBREASND,,Record Qualifier,Reason not done. Used in conjunction with MBSTAT when value is NOT DONE. Examples: BROKEN EQUIPMENT or SUBJECT REFUSED.,Perm
20,Findings,MB,NAM,,Vendor Name,MBNAM,,Record Qualifier,Name or identifier of the laboratory or vendor who provides the test results.,Perm
21,Findings,MB,LOINC,,LOINC Code,MBLOINC,,Synonym Qualifier,1. Dictionary-derived LOINC Code for MBTEST. 2. The sponsor is expected to provide the dictionary name and version used to map the terms utilizing the define.xml external codelist attributes,Perm
22,Findings,MB,SPEC,,Specimen Type,MBSPEC,,Record Qualifier,"Defines the type of specimen used for a measurement. Examples: SPUTUM, BLOOD, PUS.",Perm
23,Findings,MB,SPCCND,,Specimen Condition,MBSPCCND,,Record Qualifier,Free or standardized text describing the condition of the specimen. Example: CONTAMINATED.,Perm
24,Findings,MB,LOC,,Specimen Collection Location,MBLOC,LOC,Record Qualifier,"Location relevant to the collection of the measurement. Examples: LUNG, VEIN, LEFT KNEE WOUND, ARM ULCER 1, RIGHT THIGH LATERAL",Perm
25,Findings,MB,METHOD,,Method of Test or Examination,MBMETHOD,,Record Qualifier,"Method of the test or examination. Examples: GRAM STAIN, CULTURE PLATE, BROTH.",Exp
26,Findings,MB,BLFL,,Baseline Flag,MBBLFL,NY,Record Qualifier,Indicator used to identify a baseline value. The value should be 'Y' or null.,Perm
27,Findings,MB,DRVFL,,Derived Flag,MBDRVFL,NY,Record Qualifier,"Used to indicate a derived record. The value should be Y or null. Records that represent the average of other records or some other derivation, and those that do not come from the CRF, are examples of records that would be derived for the submission datasets. If MBDRVFL=Y, then MBORRES may be null with MBSTRESC and (if numeric) MBSTRESN having the derived value.",Perm
28,Findings,MB,VISITNUM,,Visit Number,VISITNUM,,Timing,"Clinical encounter number. Numeric version of VISIT, used for sorting.",Exp
29,Findings,MB,VISIT,,Visit Name,VISIT,,Timing,1. Protocol-defined description of clinical encounter. 2. May be used in addition to VISITNUM and/or VISITDY.,Perm
30,Findings,MB,VISITDY,,Planned Study Day of Visit,VISITDY,,Timing,Planned study day of the visit based upon RFSTDTC in Demographics.,Perm
31,Findings,MB,DTC,,Date/Time of Specimen Collection,MBDTC,ISO 8601,Timing,,Exp
32,Findings,MB,DY,,Study Day of MB Specimen Collection,MBDY,,Timing,"1. Study day of the specimen collection, measured as integer days. 2. Algorithm for calculations must be relative to the sponsor-defined RFSTDTC variable in Demographics. This formula should be consistent across the submission.",Perm
33,Findings,MB,TPT,,Planned Time Point Name,MBTPT,,Timing,"1. Text Description of time when specimen should be taken. 2. This may be represented as an elapsed time relative to a fixed reference point, such as time of last dose. See MBTPTNUM and MBTPTREF. Examples: Start, 5 min post.",Perm
34,Findings,MB,TPTNUM,,Planned Time Point Number,MBTPTNUM,,Timing,Numerical version of MBTPT to aid in sorting.,Perm
35,Findings,MB,ELTM,,Planned Elapsed Time from Time Point Ref,MBELTM,ISO 8601,Timing,"Planned elapsed time (in ISO 8601) relative to a planned fixed reference (MBTPTREF). This variable is useful where there are repetitive measures. Not a clock time or a date time variable. Represented as an ISO 8601 duration. Examples: '-PT15M' to represent the period of 15 minutes prior to the reference point indicated by MBTPTREF, or 'PT8H' to represent the period of 8 hours after the reference point indicated by MBTPTREF.",Perm
36,Findings,MB,TPTREF,,Time Point Reference,MBTPTREF,,Timing,"Name of the fixed reference point referred to by MBELTM, MBTPTNUM, and MBTPT. Example: PREVIOUS DOSE.",Perm
37,Findings,MB,RFTDTC,,Date/Time of Reference Time Point,MBRFTDTC,ISO 8601,Timing,"Date/time of the reference time point, MBTPTREF.",Perm
1,Findings,MS,STUDYID,,Study Identifier,STUDYID,,Identifier,Unique identifier for a study.,Req
2,Findings,MS,DOMAIN,,Domain Abbreviation,DOMAIN,,Identifier,Two-character abbreviation for the domain.,Req
3,Findings,MS,USUBJID,,Unique Subject Identifier,USUBJID,,Identifier,Identifier used to uniquely identify a subject across all studies for all applications or submissions involving the product.,Req
4,Findings,MS,SEQ,,Sequence Number,MSSEQ,,Identifier,Sequence Number given to ensure uniqueness of subject records within a domain. May be any valid number.,Req
5,Findings,MS,GRPID,,Group ID,MSGRPID,,Identifier,"Used to tie together a block of related records in a single domain to support relationships within the domain and between domains. In MS, used to link to organism in MB.",Req
6,Findings,MS,REFID,,Reference ID,MSREFID,,Identifier,Internal or external specimen identifier. Example: Specimen ID.,Perm
7,Findings,MS,SPID,,Sponsor-Defined Identifier,MSSPID,,Identifier,Sponsor-defined reference number. Perhaps pre-printed on the CRF as an explicit line identifier or defined in the sponsor's operational database.,Perm
8,Findings,MS,TESTCD,,Microbiology Organism Finding Short Name,MSTESTCD,,Topic,"Short name of the measurement, test, or finding described in MSTEST. It can be used as a column name when converting a dataset from a vertical to a horizontal format. The value in MSTESTCD cannot be longer than 8 characters, nor can it start with a number (e.g.'1TEST). MSTESTCD cannot contain characters other than letters, numbers, or underscores. Examples for GROWTH findings: EXTGROW, COLCOUNT. For SUSCEPTIBILITY findings, the test is the drug the organism was tested with, i.e. PENICLLN, AMOXCLLN.",Req
9,Findings,MS,TEST,,Organism Test or Finding Name,MSTEST,,Synonym Qualifier,"Verbatim name of the test or examination used to obtain the measurement or finding. Examples for GROWTH findings: Extent of Growth, Colony Count. Examples for SUSCEPTIBILITY findings: Amoxicillin Susceptibility, Penicillin Susceptibility",Req
10,Findings,MS,CAT,,Category for Organism Findings,MSCAT,,Grouping Qualifier,"Used to define a category of related records. Examples: GROWTH, SUSCEPTIBILITY.",Req
11,Findings,MS,SCAT,,Subcategory for Organism Findings,MSSCAT,,Grouping Qualifier,"A further categorization of a test category. Examples: CULTURE, ISOLATE",Perm
12,Findings,MS,ORRES,,Result or Finding in Original Units,MSORRES,,Result Qualifier,"Result of the Microbiology Organism measurement or finding as originally received or collected. Examples for GROWTH findings: GROWTH INTO 3RD QUADRANT. Examples for SUSCEPTIBLITY findings:.0080,.0023",Exp
13,Findings,MS,ORRESU,,Original Units,MSORRESU,UNIT,Variable Qualifier,Original units in which the data were collected. The unit for MSORRES. Example: mcg/mL,Exp
14,Findings,MS,STRESC,,Character Result/Finding in Std Format,MSSTRESC,,Result Qualifier,"Contains the result value for all findings, copied or derived from MSORRES in a standard format or standard units. MSSTRESC should store all results or findings in character format; if results are numeric, they should also be stored in numeric format in MSSTRESN. For example, if a test has results '+3 MODERATE', 'MOD', and 'MODERATE', and in MSORRES and these results effectively have the same meaning, they could be represented in standard format in MSSTRESC as 'MODERATE'.",Exp
15,Findings,MS,STRESN,,Numeric Result/Finding in Standard Units,MSSTRESN,,Result Qualifier,Used for continuous or numeric results or findings in standard format; copied in numeric format from MSSTRESC. MSSTRESN should store all numeric test results or findings.,Exp
16,Findings,MS,STRESU,,Standard Units,MSSTRESU,UNIT,Variable Qualifier,Standardized unit used for MSSTRESC and MSSTRESN.,Exp
17,Findings,MS,RESCAT,,Result Category,MSRESCAT,,Variable Qualifier,"Used to categorize the result of a finding in a standard format. Example for SUSCEPTIBILITY finding: SUSCEPTIBLE, INTERMEDIATE, RESISTANT, or UNKNOWN.",Exp
18,Findings,MS,STAT,,Completion Status,MSSTAT,ND,Record Qualifier,"Used to indicate a test on an organism was not done, or a test was not performed. Should be null if a result exists in MSORRES or have a value of NOT DONE.",Perm
19,Findings,MS,REASND,,Reason Test Not Done,MSREASND,,Record Qualifier,Reason not done. Describes why a measurement or test was not performed. Used in conjunction with MSSTAT when value is NOT DONE. Example: SAMPLE LOST,Perm
20,Findings,MS,NAM,,Vendor Name,MSNAM,,Record Qualifier,Name or identifier of the laboratory or vendor that provided the test results.,Perm
21,Findings,MS,LOINC,,LOINC Code,MSLOINC,,Synonym Qualifier,1. Dictionary-derived LOINC Code for MSTEST. 2. The sponsor is expected to provide the dictionary name and version used to map the terms utilizing the define.xml external codelist attributes,Perm
22,Findings,MS,METHOD,,Method of Test or Examination,MSMETHOD,,Record Qualifier,"Method of the test or examination. Example for SUSCEPTIBILITY: ETEST, BROTH DILUTION.",Exp
23,Findings,MS,BLFL,,Baseline Flag,MSBLFL,NY,Record Qualifier,Indicator used to identify a baseline value. The value should be 'Y' or null.,Perm
24,Findings,MS,DRVFL,,Derived Flag,MSDRVFL,NY,Record Qualifier,"Used to indicate a derived record. The value should be Y or null. Records that represent the average of other records or some other derivation, and those that do not come from the CRF, are examples of records that would be derived for the submission datasets. If MSDRVFL=Y, then MSORRES may be null, with MSSTRESC and (if numeric) MSSTRESN having the derived value.",Perm
25,Findings,MS,VISITNUM,,Visit Number,VISITNUM,,Timing,"Clinical encounter number. Numeric version of VISIT, used for sorting.",Exp
26,Findings,MS,VISIT,,Visit Name,VISIT,,Timing,1. Protocol-defined description of clinical encounter. 2. May be used in addition to VISITNUM and/or VISITDY.,Perm
27,Findings,MS,VISITDY,,Planned Study Day of Visit,VISITDY,,Timing,Planned study day of the visit based upon RFSTDTC in Demographics.,Perm
28,Findings,MS,DTC,,Date/Time of Test,MSDTC,ISO 8601,Timing,,Perm
29,Findings,MS,DY,,Study Day of Test,MSDY,,Timing,"1. Study day of the test, measured as integer days. 2. Algorithm for calculations must be relative to the sponsor-defined RFSTDTC variable in Demographics. This formula should be consistent across the submission.",Perm
30,Findings,MS,TPT,,Planned Time Point Name,MSTPT,,Timing,"1. Text Description of time when test should be done.  2. This may be represented as an elapsed time relative to a fixed reference point, such as time of last dose. See MSTPTNUM and MSTPTREF. Examples: Start, 5 min post.",Perm
31,Findings,MS,TPTNUM,,Planned Time Point Number,MSTPTNUM,,Timing,Numerical version of MSTPT to aid in sorting.,Perm
32,Findings,MS,ELTM,,Planned Elapsed Time from Time Point Ref,MSELTM,ISO 8601,Timing,"Elapsed time (in ISO 8601) relative to a planned fixed reference (MSTPTREF). This variable is useful where there are repetitive measures. Not a clock time or a date time variable. Examples: '-PT15M' to represent the period of 15 minutes prior to the reference point indicated by MSTPTREF, or 'P8H' to represent the period of 8 hours after the reference point indicated by MSTPTREF.",Perm
33,Findings,MS,TPTREF,,Time Point Reference,MSTPTREF,,Timing,"Name of the fixed reference point referred to by MSELTM, MSTPTNUM, and MSTPT. Example: PREVIOUS DOSE.",Perm
1,Findings,PC,STUDYID,,Study Identifier,STUDYID,,Identifier,Unique identifier for a study.,Req
2,Findings,PC,DOMAIN,,Domain Abbreviation,DOMAIN,,Identifier,Two-character abbreviation for the domain.,Req
3,Findings,PC,USUBJID,,Unique Subject Identifier,USUBJID,,Identifier,Identifier used to uniquely identify a subject across all studies for all applications or submissions involving the product.,Req
4,Findings,PC,SEQ,,Sequence Number,PCSEQ,,Identifier,Sequence Number given to ensure uniqueness of subject records within a domain. May be any valid number.,Req
5,Findings,PC,GRPID,,Group ID,PCGRPID,,Identifier,Used to tie together a block of related records in a single domain to support relationships within the domain and between domains.,Perm
6,Findings,PC,REFID,,Reference ID,PCREFID,,Identifier,Internal or external specimen identifier. Example: Specimen ID.,Perm
7,Findings,PC,SPID,,Sponsor-Defined Identifier,PCSPID,,Identifier,Sponsor-defined reference number.,Perm
8,Findings,PC,TESTCD,,Pharmacokinetic Test Short Name,PCTESTCD,,Topic,"Short name of the analyte or specimen characteristic. It can be used as a column name when converting a dataset from a vertical to a horizontal format. The value in PCTESTCD cannot be longer than 8 characters, nor can it start with a number (e.g., '1TEST'). PCTESTCD cannot contain characters other than letters, numbers, or underscores. Examples: ASA, VOL, SPG.",Req
9,Findings,PC,TEST,,Pharmacokinetic Test Name,PCTEST,,Synonym Qualifier,"Name of the analyte or specimen characteristic. Note any test normally performed by a clinical laboratory is considered a lab test. The value in PCTEST cannot be longer than 40 characters. Examples: Acetylsalicylic Acid, Volume, Specific Gravity.",Req
10,Findings,PC,CAT,,Test Category,PCCAT,,Grouping Qualifier,"Used to define a category of related records. Examples: ANALYTE, SPECIMEN PROPERTY.",Perm
11,Findings,PC,SCAT,,Test Subcategory,PCSCAT,,Grouping Qualifier,A further categorization of a test category.,Perm
12,Findings,PC,ORRES,,Result or Finding in Original Units,PCORRES,,Result Qualifier,Result of the measurement or finding as originally received or collected.,Exp
13,Findings,PC,ORRESU,,Original Units,PCORRESU,UNIT,Variable Qualifier,Original units in which the data were collected. The unit for PCORRES. Example: mg/L.,Exp
14,Findings,PC,STRESC,,Character Result/Finding in Std Format,PCSTRESC,,Result Qualifier,"Contains the result value for all findings, copied or derived from PCORRES in a standard format or standard units. PCSTRESC should store all results or findings in character format; if results are numeric, they should also be stored in numeric format in PCSTRESN. For example, if a test has results 'NONE', 'NEG', and 'NEGATIVE' in PCORRES and these results effectively have the same meaning, they could be represented in standard format in PCSTRESC as 'NEGATIVE'. For other examples, see general assumptions.",Exp
15,Findings,PC,STRESN,,Numeric Result/Finding in Standard Units,PCSTRESN,,Result Qualifier,Used for continuous or numeric results or findings in standard format; copied in numeric format from PCSTRESC. PCSTRESN should store all numeric test results or findings.,Exp
16,Findings,PC,STRESU,,Standard Units,PCSTRESU,UNIT,Variable Qualifier,Standardized unit used for PCSTRESC and PCSTRESN.,Exp
17,Findings,PC,STAT,,Completion Status,PCSTAT,ND,Record Qualifier,Used to indicate a result was not obtained. Should be null if a result exists in PCORRES.,Perm
18,Findings,PC,REASND,,Reason Test Not Done,PCREASND,,Record Qualifier,Describes why a result was not obtained such as SPECIMEN LOST. Used in conjunction with PCSTAT when value is NOT DONE.,Perm
19,Findings,PC,NAM,,Vendor Name,PCNAM,,Record Qualifier,Name or identifier of the laboratory or vendor who provides the test results.,Exp
20,Findings,PC,SPEC,,Specimen Material Type,PCSPEC,,Record Qualifier,"Defines the type of specimen used for a measurement. Examples: SERUM, PLASMA, URINE.",Req
21,Findings,PC,SPCCND,,Specimen Condition,PCSPCCND,,Record Qualifier,"Free or standardized text describing the condition of the specimen e.g. HEMOLYZED, ICTERIC, LIPEMIC etc.",Perm
22,Findings,PC,METHOD,,Method of Test or Examination,PCMETHOD,,Record Qualifier,"Method of the test or examination. Examples include HPLC/MS, ELISA. This should contain sufficient information and granularity to allow differentiation of various methods that might have been used within a study.",Perm
23,Findings,PC,FAST,,Fasting Status,PCFAST,NY,Record Qualifier,Indicator used to identify fasting status.,Perm
24,Findings,PC,DRVFL,,Derived Flag,PCDRVFL,NY,Record Qualifier,"Used to indicate a derived record. The value should be Y or null. Records that represent the average of other records, which do not come from the CRF, are examples of records that would be derived for the submission datasets. If PCDRVFL=Y, then PCORRES should be null with PCSTRESC, and (if numeric) PCSTRESN having the derived value.",Perm
25,Findings,PC,LLOQ,,Lower Limit of Quantitation,PCLLOQ,,Variable Qualifier,Indicates the lower limit of quantitation for an assay. Units should be those used in PCSTRESU.,Exp
26,Findings,PC,VISITNUM,,Visit Number,VISITNUM,,Timing,"Clinical encounter number. Numeric version of VISIT, used for sorting.",Exp
27,Findings,PC,VISIT,,Visit Name,VISIT,,Timing,1. Protocol-defined description of clinical encounter. 2. May be used in addition to VISITNUM and/or VISITDY.,Perm
28,Findings,PC,VISITDY,,Planned Study Day of Visit,VISITDY,,Timing,Planned study day of the visit based upon RFSTDTC in Demographics.,Perm
29,Findings,PC,DTC,,Date/Time of Specimen Collection,PCDTC,ISO 8601,Timing,"Date/time of specimen collection represented in ISO 8601 character format. If there is no end time, then this will be the collection time.",Exp
30,Findings,PC,ENDTC,,End Date/Time of Specimen Collection,PCENDTC,ISO 8601,Timing,"End date/time of specimen collection represented in ISO 8601 character format. If there is no end time, the collection time should be stored in PCDTC, and PCENDTC should be null.",Perm
31,Findings,PC,DY,,Actual Study Day of Specimen Collection,PCDY,,Timing,"1. Study day of specimen collection, measured as integer days. 2. Algorithm for calculations must be relative to the sponsor-defined RFSTDTC variable in Demographics.",Perm
32,Findings,PC,TPT,,Planned Time Point Name,PCTPT,,Timing,"1. Text Description of time when specimen should be taken. 2. This may be represented as an elapsed time relative to a fixed reference point, such as time of last dose. See PCTPTNUM and PCTPTREF. Examples: Start, 5 min post.",Perm
33,Findings,PC,TPTNUM,,Planned Time Point Number,PCTPTNUM,,Timing,Numerical version of PCTPT to aid in sorting.,Perm
34,Findings,PC,ELTM,,Planned Elapsed Time from Time Point Ref,PCELTM,ISO 8601,Timing,Planned elapsed time (in ISO 8601) relative to a planned fixed reference (PCTPTREF) such as 'PREVIOUS DOSE' or 'PREVIOUS MEAL'. This variable is useful where there are repetitive measures. Not a clock time or a date time variable.,Perm
35,Findings,PC,TPTREF,,Time Point Reference,PCTPTREF,,Timing,"Name of the fixed reference point used as a basis for PCTPT, PCTPTNUM, and PCELTM. Example: Most Recent Dose.",Perm
36,Findings,PC,RFTDTC,,Date/Time of Reference Point,PCRFTDTC,ISO 8601,Timing,Date/time of the reference time point described by PCTPTREF.,Perm
37,Findings,PC,EVLINT,,Evaluation Interval,PCEVLINT,ISO 8601,Timing,Evaluation Interval associated with a PCTEST record represented in ISO 8601 character format. Example: '-P2H' to represent an interval of 2 hours prior to a PCTPT.,Perm
1,Findings,PP,STUDYID,,Study Identifier,STUDYID,,Identifier,Unique identifier for a study.,Req
2,Findings,PP,DOMAIN,,Domain Abbreviation,DOMAIN,,Identifier,Two-character abbreviation for the domain.,Req
3,Findings,PP,USUBJID,,Unique Subject Identifier,USUBJID,,Identifier,Identifier used to uniquely identify a subject across all studies for all applications or submissions involving the product.,Req
4,Findings,PP,SEQ,,Sequence Number,PPSEQ,,Identifier,Sequence Number given to ensure uniqueness of subject records within a domain. May be any valid number.,Req
5,Findings,PP,GRPID,,Group ID,PPGRPID,,Identifier,Used to tie together a block of related records in a single domain to support relationships within the domain and between domains.,Perm
6,Findings,PP,TESTCD,,Parameter Short Name,PPTESTCD,,Topic,"Short name of the pharmacokinetic parameter. It can be used as a column name when converting a dataset from a vertical to a horizontal format. The value in PPTESTCD cannot be longer than 8 characters, nor can it start with a number (e.g., '1TEST'). PPTESTCD cannot contain characters other than letters, numbers, or underscores. Examples: AUC, TMAX, CMAX.",Req
7,Findings,PP,TEST,,Parameter Name,PPTEST,,Synonym Qualifier,"Name of the pharmacokinetic parameter. The value in PPTEST cannot be longer than 40 characters. Examples: AUC, Tmax, Cmax.",Req
8,Findings,PP,CAT,,Parameter Category,PPCAT,,Grouping Qualifier,"Used to define a category of related records. For PP, this should be the name of the analyte in PPTEST whose profile the parameter is associated with.",Exp
9,Findings,PP,SCAT,,Parameter Subcategory,PPSCAT,,Grouping Qualifier,"Categorization of the model type used to calculate the PK parameters. Examples include COMPARTMENTAL, NON-COMPARTMENTAL.",Perm
10,Findings,PP,ORRES,,Result or Finding in Original Units,PPORRES,,Result Qualifier,Result of the measurement or finding as originally received or collected.,Exp
11,Findings,PP,ORRESU,,Original Units,PPORRESU,UNIT,Variable Qualifier,Original units in which the data were collected. The unit for PPORRES. Example: ng/L.,Exp
12,Findings,PP,STRESC,,Character Result/Finding in Std Format,PPSTRESC,,Result Qualifier,"Contains the result value for all findings, copied or derived from PPORRES in a standard format or standard units. PPSTRESC should store all results or findings in character format; if results are numeric, they should also be stored in numeric format in PPSTRESN.",Exp
13,Findings,PP,STRESN,,Numeric Result/Finding in Standard Units,PPSTRESN,,Result Qualifier,Used for continuous or numeric results or findings in standard format; copied in numeric format from PPSTRESC. PPSTRESN should store all numeric test results or findings.,Exp
14,Findings,PP,STRESU,,Standard Units,PPSTRESU,UNIT,Variable Qualifier,Standardized unit used for PPSTRESC and PPSTRESN.,Exp
15,Findings,PP,STAT,,Completion Status,PPSTAT,ND,Record Qualifier,Used to indicate that a parameter was not calculated. Should be null if a result exists in PPORRES.,Perm
16,Findings,PP,REASND,,Reason Parameter Not Calculated,PPREASND,,Record Qualifier,"Describes why a parameter was not calculated, such as INSUFFICIENT DATA. Used in conjunction with PPSTAT when value is NOT DONE.",Perm
17,Findings,PP,SPEC,,Specimen Material Type,PPSPEC,,Record Qualifier,"Defines the type of specimen used for a measurement. If multiple specimen types are used for a calculation (e.g., serum and urine for renal clearance), then this field should be left blank. Examples: SERUM, PLASMA, URINE.",Exp
18,Findings,PP,DTC,,Date/Time of Parameter Calculations,PPDTC,ISO 8601,Timing,Nominal date/time of parameter calculations.,Perm
19,Findings,PP,RFTDTC,,Date/Time of Reference Point,PPRFTDTC,ISO 8601,Timing,Date/time of the reference time point from the PC records used to calculate a parameter record. The values in PPRFTDTC should be the same as that in PCRFTDTC for related records.,Exp
1,Findings,FA,STUDYID,,Study Identifier,STUDYID,,Identifier,Unique identifier for a study.,Req
2,Findings,FA,DOMAIN,,Domain Abbreviation,DOMAIN,,Identifier,Two-character abbreviation for the domain.,Req
3,Findings,FA,USUBJID,,Unique Subject Identifier,USUBJID,,Identifier,Identifier used to uniquely identify a subject across all studies for all applications or submissions involving the product.,Req
4,Findings,FA,SEQ,,Sequence Number,FASEQ,,Identifier,Sequence Number given to ensure uniqueness of subject records within a domain. May be any valid number.,Req
5,Findings,FA,GRPID,,Group ID,FAGRPID,,Identifier,Used to tie together a block of related records in a single domain for a subject.,Perm
6,Findings,FA,SPID,,Sponsor-Defined Identifier,FASPID,,Identifier,Sponsor-defined reference number. Perhaps pre-printed on the CRF as an explicit line identifier or defined in the sponsor's operational database. Example: Line number on a CRF.,Perm
7,Findings,FA,TESTCD,,Findings About Test Short Name,FATESTCD,,Topic,"Short name of the measurement, test, or examination described in FATEST. It can be used as a column name when converting a dataset from a vertical to a horizontal format. The value in FATESTCD cannot be longer than 8 characters, nor can it start with a number (e.g. '1TEST'). FATESTCD cannot contain characters other than letters, numbers, or underscores. Example: SEV, OCCUR.",Req
8,Findings,FA,TEST,,Findings About Test Name,FATEST,,Synonym Qualifier,"Verbatim name of the test or examination used to obtain the measurement or finding. The value in FATEST cannot be longer than 40 characters. Examples: Severity/Intensity, Occurrence",Req
9,Findings,FA,OBJ,,Object of the Observation,FAOBJ,,Record Qualifier,"Used to describe the object or focal point of the findings observation that is represented by --TEST. Examples: the term (such as Acne) describing a clinical sign or symptom that is being measured by a Severity test, or an event such as VOMIT where the volume of Vomit is being measured by a VOLUME test.",Req
10,Findings,FA,CAT,,Category for Findings About,FACAT,,Grouping Qualifier,"Used to define a category of related records. Examples: GERD, PRE-SPECIFIED AE.",Perm
11,Findings,FA,SCAT,,Subcategory for Findings About,FASCAT,,Grouping Qualifier,A further categorization of FACAT.,Perm
12,Findings,FA,ORRES,,Result or Finding in Original Units,FAORRES,,Result Qualifier,Result of the test as originally received or collected.,Exp
13,Findings,FA,ORRESU,,Original Units,FAORRESU,UNIT,Variable Qualifier,Original units in which the data were collected. The unit for FAORRES.,Perm
14,Findings,FA,STRESC,,Character Result/Finding in Std Format,FASTRESC,,Result Qualifier,"Contains the result value for all findings, copied or derived from FAORRES in a standard format or standard units. FASTRESC should store all results or findings in character format; if results are numeric, they should also be stored in numeric format in FASTRESN. For example, if a test has results 'NONE', 'NEG', and 'NEGATIVE' in FAORRES and these results effectively have the same meaning; they could be represented in standard format in FASTRESC as 'NEGATIVE'.",Exp
15,Findings,FA,STRESN,,Numeric Result/Finding in Standard Units,FASTRESN,,Result Qualifier,Used for continuous or numeric results or findings in standard format; copied in numeric format from FASTRESC. FASTRESN should store all numeric test results or findings.,Perm
16,Findings,FA,STRESU,,Standard Units,FASTRESU,UNIT,Variable Qualifier,Standardized unit used for FASTRESC and FASTRESN.,Perm
17,Findings,FA,STAT,,Completion Status,FASTAT,ND,Record Qualifier,Used to indicate that the measurement was not done. Should be null if a result exists in FAORRES.,Perm
18,Findings,FA,REASND,,Reason Not Performed,FAREASND,,Record Qualifier,Describes why a question was not answered. Example: subject refused. Used in conjunction with FASTAT when value is NOT DONE.,Perm
19,Findings,FA,LOC,,Location of the Finding About,FALOC,LOC,Variable Qualifier,Used to specify the location of the clinical evaluation. Example: LEFT ARM,Perm
20,Findings,FA,BLFL,,Baseline Flag,FABLFL,NY,Record Qualifier,Indicator used to identify a baseline value. The value should be 'Y' or null.,Perm
21,Findings,FA,EVAL,,Evaluator,FAEVAL,,Record Qualifier,"Role of the person who provided the evaluation. Used only for results that are subjective (e.g., assigned by a person or a group). Should be null for records that contain collected or derived data. Examples: INVESTIGATOR, ADJUDICATION COMMITTEE, VENDOR.",Perm
22,Findings,FA,VISITNUM,,Visit Number,VISITNUM,,Timing,"Clinical encounter number. Numeric version of VISIT, used for sorting.",Exp
23,Findings,FA,VISIT,,Visit Name,VISIT,,Timing,1. Protocol-defined description of clinical encounter. 2. May be used in addition to VISITNUM and/or VISITDY.,Perm
24,Findings,FA,VISITDY,,Planned Study Day of Visit,VISITDY,,Timing,Planned study day of the visit based upon RFSTDTC in Demographics.,Perm
25,Findings,FA,DTC,,Date/Time of Collection,FADTC,ISO 8601,Timing,,Perm
26,Findings,FA,DY,,Study Day of Collection,FADY,,Timing,"1. Study day of collection, measured as integer days. 2. Algorithm for calculations must be relative to the sponsor-defined RFSTDTC variable in Demographics. This formula should be consistent across the submission.",Perm
1,Interventions,CM,STUDYID,,Study Identifier,STUDYID,,Identifier,Unique identifier for a study.,Req
2,Interventions,CM,DOMAIN,,Domain Abbreviation,DOMAIN,,Identifier,Two-character abbreviation for the domain.,Req
3,Interventions,CM,USUBJID,,Unique Subject Identifier,USUBJID,,Identifier,Identifier used to uniquely identify a subject across all studies for all applications or submissions involving the product.,Req
4,Interventions,CM,SEQ,,Sequence Number,CMSEQ,,Identifier,Sequence Number given to ensure uniqueness of subject records within a domain. May be any valid number.,Req
5,Interventions,CM,GRPID,,Group ID,CMGRPID,,Identifier,Used to tie together a block of related records in a single domain for a subject.,Perm
6,Interventions,CM,SPID,,Sponsor-Defined Identifier,CMSPID,,Identifier,Sponsor-defined reference number. Examples: a number pre-printed on the CRF as an explicit line identifier or record identifier defined in the sponsor's operational database. Example: line number on a concomitant medication page.,Perm
7,Interventions,CM,TRT,,"Reported Name of Drug, Med, or Therapy",CMTRT,,Topic,Verbatim medication name that is either pre-printed or collected on a CRF.,Req
8,Interventions,CM,MODIFY,,Modified Reported Name,CMMODIFY,,Synonym Qualifier,"If CMTRT is modified to facilitate coding, then CMMODIFY will contain the modified text.",Perm
9,Interventions,CM,DECOD,,Standardized Medication Name,CMDECOD,,Synonym Qualifier,Standardized or dictionary-derived text description of CMTRT or CMMODIFY. Equivalent to the generic medication name in WHO Drug. The sponsor is expected to provide the dictionary name and version used to map the terms utilizing the define.xml external codelist attributes. If an intervention term does not have a decode value in the dictionary then CMDECOD will be left blank.,Perm
10,Interventions,CM,CAT,,Category for Medication,CMCAT,,Grouping Qualifier,"Used to define a category of medications/treatments. Examples: PRIOR, CONCOMITANT, ANTI-CANCER MEDICATION, or GENERAL CONMED.",Perm
11,Interventions,CM,SCAT,,Subcategory for Medication,CMSCAT,,Grouping Qualifier,"A further categorization of medications/ treatment. Examples: CHEMOTHERAPY, HORMONAL THERAPY, ALTERNATIVE THERAPY.",Perm
12,Interventions,CM,PRESP,,CM Pre-Specified,CMPRESP,NY,Record Qualifier,Used to indicate whether (Y/null) information about the use of a specific medication was solicited on the CRF.,Perm
13,Interventions,CM,OCCUR,,CM Occurrence,CMOCCUR,NY,Record Qualifier,"When the use of specific medications is solicited, CMOCCUR is used to indicate whether or not (Y/N) use of the medication occurred. Values are null for medications not specifically solicited.",Perm
14,Interventions,CM,STAT,,Completion Status,CMSTAT,ND,Record Qualifier,Used to indicate that a question about a pre-specified medication was not answered. Should be null or have a value of NOT DONE.,Perm
15,Interventions,CM,REASND,,Reason Medication Not Collected,CMREASND,,Record Qualifier,Describes the reason concomitant medication was not collected. Used in conjunction with CMSTAT when value is NOT DONE.,Perm
16,Interventions,CM,INDC,,Indication,CMINDC,,Record Qualifier,"Denotes why a medication was taken or administered. Examples: NAUSEA, HYPERTENSION.",Perm
17,Interventions,CM,CLAS,,Medication Class,CMCLAS,,Variable Qualifier,"Drug class. May be obtained from coding. When coding to a single class, populate with class value. If using a dictionary and coding to multiple classes, then follow assumption 4.1.2.8.3 or omit CMCLAS.",Perm
18,Interventions,CM,CLASCD,,Medication Class Code,CMCLASCD,,Variable Qualifier,"Class code corresponding to CMCLAS. Drug class. May be obtained from coding. When coding to a single class, populate with class code. If using a dictionary and coding to multiple classes, then follow assumption 4.1.2.8.3 or omit CMCLASCD.",Perm
19,Interventions,CM,DOSE,,Dose per Administration,CMDOSE,,Record Qualifier,Amount of CMTRT taken.,Perm
20,Interventions,CM,DOSTXT,,Dose Description,CMDOSTXT,,Record Qualifier,"Dosing amounts or a range of dosing information collected in text form. Units may be stored in CMDOSU. Example: 200-400, 15-20.",Perm
21,Interventions,CM,DOSU,,Dose Units,CMDOSU,UNIT,Variable Qualifier,"Units for CMDOSE, CMDOSTXT, and CMDOSTOT. Examples: ng, mg, or mg/kg.",Perm
22,Interventions,CM,DOSFRM,,Dose Form,CMDOSFRM,FRM,Record Qualifier,"Dose form for CMTRT. Examples: TABLET, LOTION.",Perm
23,Interventions,CM,DOSFRQ,,Dosing Frequency per Interval,CMDOSFRQ,FREQ,Variable Qualifier,"Usually expressed as the number of repeated administrations of CMDOSE within a specific time period. Examples: BID (twice daily), Q12H (every 12 hours).",Perm
24,Interventions,CM,DOSTOT,,Total Daily Dose,CMDOSTOT,,Record Qualifier,"Total daily dose of CMTRT using the units in CMDOSU. Total dose over a period other than day could be recorded in a separate Supplemental Qualifier variable. CMDOSTOT should be used in addition to CMDOSE, and not in place of it.",Perm
25,Interventions,CM,DOSRGM,,Intended Dose Regimen,CMDOSRGM,,Variable Qualifier,"Text description of the (intended) schedule or regimen for the Intervention. Examples: TWO WEEKS ON, TWO WEEKS OFF.",Perm
26,Interventions,CM,ROUTE,,Route of Administration,CMROUTE,ROUTE,Variable Qualifier,"Route of administration for CMTRT. Examples: ORAL, INTRAVENOUS.",Perm
27,Interventions,CM,STDTC,,Start Date/Time of Medication,CMSTDTC,ISO 8601,Timing,,Perm
28,Interventions,CM,ENDTC,,End Date/Time of Medication,CMENDTC,ISO 8601,Timing,,Perm
29,Interventions,CM,STDY,,Study Day of Start of Medication,CMSTDY,,Timing,Study day of start of medication relative to the sponsor-defined RFSTDTC.,Perm
30,Interventions,CM,ENDY,,Study Day of End of Medication,CMENDY,,Timing,Study day of end of medication relative to the sponsor-defined RFSTDTC.,Perm
31,Interventions,CM,DUR,,Duration of Medication,CMDUR,ISO 8601,Timing,Collected duration for a treatment episode. Used only if collected on the CRF and not derived from start and end date/times.,Perm
32,Interventions,CM,STRF,,Start Relative to Reference Period,CMSTRF,STENRF,Timing,"Describes the start of the medication relative to sponsor-defined reference period. The sponsor-defined reference period is a continuous period of time defined by a discrete starting point and a discrete ending point (represented by RFSTDTC and RFENDTC in Demographics). If information such as 'PRIOR', 'ONGOING', or 'CONTINUING' was collected, this information may be translated into CMSTRF.",Perm
33,Interventions,CM,ENRF,,End Relative to Reference Period,CMENRF,STENRF,Timing,"Describes the end of the medication relative to the sponsor-defined reference period. The sponsor-defined reference period is a continuous period of time defined by a discrete starting point and a discrete ending point (represented by RFSTDTC and RFENDTC in Demographics). If information such as 'PRIOR', 'ONGOING', or 'CONTINUING' was collected, this information may be translated into CMENRF.",Perm
34,Interventions,CM,STRTPT,,Start Relative to Reference Time Point,CMSTRTPT,STRTPT,Timing,Identifies the start of the medication as being before or after the reference time point defined by variable CMSTTPT.,Perm
35,Interventions,CM,STTPT,,Start Reference Time Point,CMSTTPT,,Timing,Description or date/time in ISO 8601 character format of the reference point referred to by CMSTRTPT. Examples: '2003-12-15' or 'VISIT 1'.,Perm
36,Interventions,CM,ENRTPT,,End Relative to Reference Time Point,CMENRTPT,ENRTPT,Timing,Identifies the end of the medication as being before or after the reference time point defined by variable CMENTPT.,Perm
37,Interventions,CM,ENTPT,,End Reference Time Point,CMENTPT,,Timing,Description or date/time in ISO 8601 character format of the reference point referred to by CMENRTPT. Examples: '2003-12-25' or 'VISIT 2'.,Perm
1,Interventions,EX,STUDYID,,Study Identifier,STUDYID,,Identifier,Unique identifier for a study.,Req
2,Interventions,EX,DOMAIN,,Domain Abbreviation,DOMAIN,,Identifier,Two-character abbreviation for the domain.,Req
3,Interventions,EX,USUBJID,,Unique Subject Identifier,USUBJID,,Identifier,Identifier used to uniquely identify a subject across all studies for all applications or submissions involving the product.,Req
4,Interventions,EX,SEQ,,Sequence Number,EXSEQ,,Identifier,Sequence Number given to ensure uniqueness of subject records within a domain. May be any valid number.,Req
5,Interventions,EX,GRPID,,Group ID,EXGRPID,,Identifier,Used to tie together a block of related records in a single domain for a subject.,Perm
6,Interventions,EX,SPID,,Sponsor-Defined Identifier,EXSPID,,Identifier,Sponsor-defined reference number. Perhaps pre-printed on the CRF as an explicit line identifier or defined in the sponsor's operational database. Example: Line number on a CRF Page.,Perm
7,Interventions,EX,TRT,,Name of Actual Treatment,EXTRT,,Topic,Name of the intervention treatment - usually the verbatim name of the investigational treatment given during the dosing period for the observation.,Req
8,Interventions,EX,CAT,,Category for Treatment,EXCAT,,Grouping Qualifier,Used to define a category of related records. Example: COMPARATOR CLASS.,Perm
9,Interventions,EX,SCAT,,Subcategory for Treatment,EXSCAT,,Grouping Qualifier,A further categorization of treatment.,Perm
10,Interventions,EX,DOSE,,Dose per Administration,EXDOSE,,Record Qualifier,Amount of EXTRT administered or given.,Exp
11,Interventions,EX,DOSTXT,,Dose Description,EXDOSTXT,,Record Qualifier,Dosing amounts or a range of dosing information collected in text form. Example: 200-400.,Perm
12,Interventions,EX,DOSU,,Dose Units,EXDOSU,UNIT,Variable Qualifier,"Units for EXDOSE and EXDOSTOT. Examples: ng, mg, or mg/kg.",Exp
13,Interventions,EX,DOSFRM,,Dose Form,EXDOSFRM,FRM,Record Qualifier,"Dose form for EXTRT. Examples: TABLET, LOTION.",Exp
14,Interventions,EX,DOSFRQ,,Dosing Frequency per Interval,EXDOSFRQ,FREQ,Variable Qualifier,"Usually expressed as the number of repeated administrations of EXDOSE within a specific time period. Examples: BID (twice daily), Q4S (once every four weeks), BIS (twice a week).",Perm
15,Interventions,EX,DOSTOT,,Total Daily Dose,EXDOSTOT,,Record Qualifier,Total daily dose of EXTRT using the units in EXDOSU. Total dose over a period other than day could be recorded in a separate Supplemental Qualifier variable.,Perm
16,Interventions,EX,DOSRGM,,Intended Dose Regimen,EXDOSRGM,,Variable Qualifier,"Text description of the (intended) schedule or regimen for the Intervention. Examples: TWO WEEKS ON, TWO WEEKS OFF.",Perm
17,Interventions,EX,ROUTE,,Route of Administration,EXROUTE,ROUTE,Variable Qualifier,"Route of administration for EXTRT. Examples: ORAL, INTRAVENOUS.",Perm
18,Interventions,EX,LOT,,Lot Number,EXLOT,,Record Qualifier,Lot Number of the EXTRT product.,Perm
19,Interventions,EX,LOC,,Location of Dose Administration,EXLOC,LOC,Record Qualifier,Specifies location of administration. Example: LEFT ARM for a topical application.,Perm
20,Interventions,EX,TRTV,,Treatment Vehicle,EXTRTV,,Record Qualifier,Describes vehicle used for treatment. Example: SALINE.,Perm
21,Interventions,EX,VAMT,,Treatment Vehicle Amount,EXVAMT,,Variable Qualifier,Amount administered of the treatment vehicle indicated by EXTRTV,Perm
22,Interventions,EX,VAMTU,,Treatment Vehicle Amount Units,EXVAMTU,UNIT,Variable Qualifier,Units of the treatment vehicle amount indicated by EXVAMT,Perm
23,Interventions,EX,ADJ,,Reason for Dose Adjustment,EXADJ,,Record Qualifier,Describes reason or explanation of why a dose is adjusted - used only when an adjustment is represented in EX.,Perm
24,Interventions,EX,TAETORD,,Order of Element within Arm,TAETORD,,Timing,Number that gives the order of the Element within the Arm.,Perm
25,Interventions,EX,EPOCH,,Epoch,EPOCH,,Timing,Epoch associated with the Element in the planned sequence of Elements for the ARM to which the subject was assigned,Perm
26,Interventions,EX,STDTC,,Start Date/Time of Treatment,EXSTDTC,ISO 8601,Timing,The time when administration of the treatment indicated by EXTRT and EXDOSE began.,Exp
27,Interventions,EX,ENDTC,,End Date/Time of Treatment,EXENDTC,ISO 8601,Timing,The time when administration of the treatment indicated by EXTRT and EXDOSE ended.,Perm
28,Interventions,EX,STDY,,Study Day of Start of Treatment,EXSTDY,,Timing,Study day of start of treatment relative to the sponsor-defined RFSTDTC.,Perm
29,Interventions,EX,ENDY,,Study Day of End of Treatment,EXENDY,,Timing,Study day of end of treatment relative to the sponsor-defined RFSTDTC.,Perm
30,Interventions,EX,DUR,,Duration of Treatment,EXDUR,ISO 8601,Timing,Collected duration and unit of a treatment. Used only if collected on the CRF and not derived from start and end date/times.,Perm
31,Interventions,EX,TPT,,Planned Time Point Name,EXTPT,,Timing,"1. Text Description of time when a dose should be given. 2. This may be represented as an elapsed time relative to a fixed reference point, such as time of last dose. See EXTPTNUM and EXTPTREF. Examples: Start or 5 min post.",Perm
32,Interventions,EX,TPTNUM,,Planned Time Point Number,EXTPTNUM,,Timing,Numerical version of EXTPT to aid in sorting.,Perm
33,Interventions,EX,ELTM,,Planned Elapsed Time from Time Point Ref,EXELTM,ISO 8601,Timing,Planned elapsed time (in ISO 8601 format) relative to the planned fixed reference (EXTPTREF). This variable is useful where there are repetitive measures. Not a clock time. Represented as an ISO duration.,Perm
34,Interventions,EX,TPTREF,,Time Point Reference,EXTPTREF,,Timing,"Name of the fixed reference point referred to by EXELTM, EXTPTNUM, and EXTPT. Examples: PREVIOUS DOSE, PREVIOUS MEAL.",Perm
1,Interventions,SU,STUDYID,,Study Identifier,STUDYID,,Identifier,Unique identifier for a study.,Req
2,Interventions,SU,DOMAIN,,Domain Abbreviation,DOMAIN,,Identifier,Two-character abbreviation for the domain.,Req
3,Interventions,SU,USUBJID,,Unique Subject Identifier,USUBJID,,Identifier,Identifier used to uniquely identify a subject across all studies for all applications or submissions involving the product.,Req
4,Interventions,SU,SEQ,,Sequence Number,SUSEQ,,Identifier,Sequence Number given to ensure uniqueness of subject records within a domain. May be any valid number.,Req
5,Interventions,SU,GRPID,,Group ID,SUGRPID,,Identifier,Used to tie together a block of related records in a single domain for a subject.,Perm
6,Interventions,SU,SPID,,Sponsor-Defined Identifier,SUSPID,,Identifier,Sponsor-defined reference number. Perhaps pre-printed on the CRF as an explicit line identifier or defined in the sponsor's operational database. Example: Line number on a Tobacco & Alcohol use CRF page.,Perm
7,Interventions,SU,TRT,,Reported Name of Substance,SUTRT,,Topic,"Substance name. Examples: Cigarettes, Coffee.",Req
8,Interventions,SU,MODIFY,,Modified Substance Name,SUMODIFY,,Synonym Qualifier,"If SUTRT is modified, then the modified text is placed here.",Perm
9,Interventions,SU,DECOD,,Standardized Substance Name,SUDECOD,,Synonym Qualifier,Standardized or dictionary-derived text description of SUTRT or SUMODIFY if the sponsor chooses to code the substance use. The sponsor is expected to provide the dictionary name and version used to map the terms utilizing the define.xml external codelist attributes.,Perm
10,Interventions,SU,CAT,,Category for Substance Use,SUCAT,,Grouping Qualifier,"Used to define a category of related records. Examples: TOBACCO, ALCOHOL, or CAFFEINE.",Perm
11,Interventions,SU,SCAT,,Subcategory for Substance Use,SUSCAT,,Grouping Qualifier,"A further categorization of substance use. Examples: CIGARS, CIGARETTES, BEER, WINE",Perm
12,Interventions,SU,PRESP,,SU Pre-Specified,SUPRESP,NY,Record Qualifier,Used to indicate whether (Y/null) information about the use of a specific substance was solicited on the CRF.,Perm
13,Interventions,SU,OCCUR,,SU Occurrence,SUOCCUR,NY,Record Qualifier,"When the use of specific substances is solicited, SUOCCUR is used to indicate whether or not (Y/N) a particular pre-specified substance was used. Values are null for substances not specifically solicited.",Perm
14,Interventions,SU,STAT,,Completion Status,SUSTAT,ND,Record Qualifier,"When the use of pre-specified substances is solicited, the completion status indicates that there was no response to the question about the pre-specified substance. When there is no pre-specified list on the CRF, then the completion status indicates that substance use was not assessed for the subject.",Perm
15,Interventions,SU,REASND,,Reason Substance Use Not Collected,SUREASND,,Record Qualifier,Describes the reason substance use was not collected. Used in conjunction with SUSTAT when value of SUSTAT is NOT DONE.,Perm
16,Interventions,SU,CLAS,,Substance Use Class,SUCLAS,,Variable Qualifier,"Substance use class. May be obtained from coding. When coding to a single class, populate with class value. If using a dictionary and coding to multiple classes, then follow assumption 4.1.3.5 or omit SUCLAS.",Perm
17,Interventions,SU,CLASCD,,Substance Use Class Code,SUCLASCD,,Variable Qualifier,Code corresponding to SUCLAS. May be obtained from coding.,Perm
18,Interventions,SU,DOSE,,Substance Use Consumption,SUDOSE,,Record Qualifier,Amount of SUTRT consumed.,Perm
19,Interventions,SU,DOSTXT,,Substance Use Consumption Text,SUDOSTXT,,Record Qualifier,Substance use consumption amounts or a range of consumption information collected in text form.,Perm
20,Interventions,SU,DOSU,,Consumption Units,SUDOSU,UNIT,Variable Qualifier,"Units for SUDOSE, SUDOSTXT, and SUDOSTOT. Examples: OUNCES, CIGARETTE EQUIVALENTS, or GRAMS.",Perm
21,Interventions,SU,DOSFRM,,Dose Form,SUDOSFRM,,Record Qualifier,"Dose form for SUTRT. Examples: INJECTABLE, LIQUID, or POWDER.",Perm
22,Interventions,SU,DOSFRQ,,Use Frequency Per Interval,SUDOSFRQ,FREQ,Variable Qualifier,Usually expressed as the number of repeated administrations of SUDOSE within a specific time period. Example: Q24H (every day),Perm
23,Interventions,SU,DOSTOT,,Total Daily Consumption,SUDOSTOT,,Record Qualifier,"Total daily use of SUTRT using the units in SUDOSU. If sponsor needs to aggregate the data over a period other than daily, then the aggregated total could be recorded in a Supplemental Qualifier variable.",Perm
24,Interventions,SU,ROUTE,,Route of Administration,SUROUTE,ROUTE,Variable Qualifier,"Route of administration for SUTRT. Examples: ORAL, INTRAVENOUS.",Perm
25,Interventions,SU,STDTC,,Start Date/Time of Substance Use,SUSTDTC,ISO 8601,Timing,,Perm
26,Interventions,SU,ENDTC,,End Date/Time of Substance Use,SUENDTC,ISO 8601,Timing,,Perm
27,Interventions,SU,STDY,,Study Day of Start of Substance Use,SUSTDY,,Timing,Study day of start of substance use relative to the sponsor-defined RFSTDTC.,Perm
28,Interventions,SU,ENDY,,Study Day of End of Substance Use,SUENDY,,Timing,Study day of end of substance use relative to the sponsor-defined RFSTDTC.,Perm
29,Interventions,SU,DUR,,Duration of Substance Use,SUDUR,ISO 8601,Timing,Collected duration of substance use in ISO 8601 format. Used only if collected on the CRF and not derived from start and end date/times.,Perm
30,Interventions,SU,STRF,,Start Relative to Reference Period,SUSTRF,STENRF,Timing,"Describes the start of the substance use relative to the sponsor-defined reference period. The sponsor-defined reference period is a continuous period of time defined by a discrete starting point and a discrete ending point (represented by RFSTDTC and RFENDTC in Demographics). If information such as 'PRIOR', 'ONGOING', or 'CONTINUING' was collected, this information may be translated into SUSTRF.",Perm
31,Interventions,SU,ENRF,,End Relative to Reference Period,SUENRF,STENRF,Timing,"Describes the end of the substance use with relative to the sponsor-defined reference period. The sponsor-defined reference period is a continuous period of time defined by a discrete starting point and a discrete ending point (represented by RFSTDTC and RFENDTC in Demographics). If information such as 'PRIOR', 'ONGOING', or 'CONTINUING' was collected, this information may be translated into SUENRF.",Perm
32,Interventions,SU,STRTPT,,Start Relative to Reference Time Point,SUSTRTPT,STRTPT,Timing,Identifies the start of the medication as being before or after the reference time point defined by variable SUSTTPT.,Perm
33,Interventions,SU,STTPT,,Start Reference Time Point,SUSTTPT,,Timing,Description or date/time in ISO 8601 character format of the reference point referred to by SUSTRTPT. Examples: '2003-12-15' or 'VISIT 1'.,Perm
34,Interventions,SU,ENRTPT,,End Relative to Reference Time Point,SUENRTPT,ENRTPT,Timing,Identifies the end of the medication as being before or after the reference time point defined by variable SUENTPT.,Perm
35,Interventions,SU,ENTPT,,End Reference Time Point,SUENTPT,,Timing,Description or date/time in ISO 8601 character format of the reference point referred to by SUENRTPT. Examples: '2003-12-25' or 'VISIT 2'.,Perm
1,Relationship,RELREC,STUDYID,,Study Identifier,STUDYID,,,Unique identifier for a study.,Req
2,Relationship,RELREC,RDOMAIN,,Related Domain Abbreviation,RDOMAIN,DOMAIN,,Two-character abbreviation for the domain of the parent record(s).,Req
3,Relationship,RELREC,USUBJID,,Unique Subject Identifier,USUBJID,,,Identifier used to uniquely identify a subject across all studies for all applications or submissions involving the product.,Exp
4,Relationship,RELREC,IDVAR,,Identifying Variable,IDVAR,,,Name of the identifying variable in the general-observation-class dataset that identifies the related record(s). Examples include --SEQ and --GRPID.,Req
5,Relationship,RELREC,IDVARVAL,,Identifying Variable Value,IDVARVAL,,,"Value of identifying variable described in IDVAR. If --SEQ is the variable being used to describe this record, then the value of --SEQ would be entered here.",Exp
6,Relationship,RELREC,RELTYPE,,Relationship Type,RELTYPE,RELTYPE,,Identifies the hierarchical level of the records in the relationship. Values should be either ONE or MANY. Used only when identifying a relationship between datasets (as described in Section 8.3).,Exp
7,Relationship,RELREC,RELID,,Relationship Identifier,RELID,,,"Unique value within USUBJID that identifies the relationship. All records for the same USUBJID that have the same RELID are considered 'related/associated.' RELID can be any value the sponsor chooses, and is only meaningful within the RELREC dataset to identify the related/associated Domain records.",Req
1,Special Purpose,SE,STUDYID,,Study Identifier,STUDYID,,Identifier,Unique identifier for a study.,Req
2,Special Purpose,SE,DOMAIN,,Domain Abbreviation,DOMAIN,,Identifier,Two-character abbreviation for the domain.,Req
3,Special Purpose,SE,USUBJID,,Unique Subject Identifier,USUBJID,,Identifier,Identifier used to uniquely identify a subject across all studies for all applications or submissions involving the product.,Req
4,Special Purpose,SE,SEQ,,Sequence Number,SESEQ,,Identifier,Sequence Number given to ensure uniqueness of subject records within a domain. Should be assigned to be consistent chronological order.,Req
5,Special Purpose,SE,ETCD,,Element Code,ETCD,,Topic,"ETCD (the companion to ELEMENT) is limited to 8 characters and does not have special character restrictions. These values should be short for ease of use in programming, but it is not expected that ETCD will need to serve as a variable name.",Req
6,Special Purpose,SE,ELEMENT,,Description of Element,ELEMENT,,Synonym Qualifier,The name of the Element. If ETCD has a value of 'UNPLAN' then ELEMENT should be Null.,Perm
7,Special Purpose,SE,STDTC,,Start Date/Time of Element,SESTDTC,ISO 8601,Timing,Start date/time for an Element for each subject.,Req
8,Special Purpose,SE,ENDTC,,End Date/Time of Element,SEENDTC,ISO 8601,Timing,End date/time for an Element for each subject.,Exp
9,Special Purpose,SE,TAETORD,,Planned Order of Elements within Arm,TAETORD,,Timing,Number that gives the order of the Element within the Arm.,Perm
10,Special Purpose,SE,EPOCH,,Epoch,EPOCH,,Timing,Epoch associated with the Element in the planned sequence of Elements for the ARM to which the subject was assigned,Perm
11,Special Purpose,SE,UPDES,,Description of Unplanned Element,SEUPDES,,Synonym Qualifier,Description of what happened to the subject during this unplanned Element. Used only if ETCD has the value of 'UNPLAN'.,Perm
1,Special Purpose,CO,STUDYID,,Study Identifier,STUDYID,,Identifier,Unique identifier for a study.,Req
2,Special Purpose,CO,DOMAIN,,Domain Abbreviation,DOMAIN,,Identifier,Two-character abbreviation for the domain.,Req
3,Special Purpose,CO,RDOMAIN,,Related Domain Abbreviation,RDOMAIN,DOMAIN,Record Qualifier,Two-character abbreviation for the domain of the parent record(s).,Perm
4,Special Purpose,CO,USUBJID,,Unique Subject Identifier,USUBJID,,Identifier,Identifier used to uniquely identify a subject across all studies for all applications or submissions involving the product.,Req
5,Special Purpose,CO,SEQ,,Sequence Number,COSEQ,,Identifier,Sequence Number given to ensure uniqueness of subject records within a domain. May be any valid number.,Req
6,Special Purpose,CO,IDVAR,,Identifying Variable,IDVAR,,Record Qualifier,Name of the identifying variable in the general-observation-class dataset that identifies the related record(s). Examples include --SEQ and --GRPID.,Perm
7,Special Purpose,CO,IDVARVAL,,Identifying Variable Value,IDVARVAL,,Record Qualifier,"Value of identifying variable described in IDVAR. If --SEQ is the variable being used to describe this record, then the value of --SEQ would be entered here.",Perm
8,Special Purpose,CO,REF,,Comment Reference,COREF,,Record Qualifier,"Sponsor-defined reference associated with the comment. May be the CRF page number (e.g. 650), or a module name (e.g. DEMOG), or a combination of information that identifies the reference (e.g. 650-VITALS-VISIT 2).",Perm
9,Special Purpose,CO,VAL,,Comment,COVAL,,Topic,The text of the comment. Text over 200 characters can be added to additional columns COVAL1-COVALn. See assumption 5.2.1.1.3.,Req
10,Special Purpose,CO,EVAL,,Evaluator,COEVAL,,Record Qualifier,"Used to describe the originator of the comment. Examples: CENTRAL, REVIEWER, ADJUDICATION COMMITTEE, PRINCIPAL INVESTIGATOR.",Perm
11,Special Purpose,CO,DTC,,Date/Time of Comment,CODTC,ISO 8601,Timing,Date/time of comment on dedicated comment form. Should be null if this is a child record of another domain or if comment date was not collected.,Perm
1,Special Purpose,DM,STUDYID,,Study Identifier,STUDYID,,Identifier,Unique identifier for a study.,Req
2,Special Purpose,DM,DOMAIN,,Domain Abbreviation,DOMAIN,,Identifier,Two-character abbreviation for the domain.,Req
3,Special Purpose,DM,USUBJID,,Unique Subject Identifier,USUBJID,,Identifier,Identifier used to uniquely identify a subject across all studies for all applications or submissions involving the product.,Req
4,Special Purpose,DM,SUBJID,,Subject Identifier for the Study,SUBJID,,Topic,"Subject identifier, which must be unique within the study. Often the ID of the subject as recorded on a CRF.",Req
5,Special Purpose,DM,RFSTDTC,,Subject Reference Start Date/Time,RFSTDTC,ISO 8601,Record Qualifier,"Reference Start Date/time for the subject in ISO 8601 character format. Usually equivalent to date/time when subject was first exposed to study treatment. Required for all randomized subjects; will be null for all subjects who did not meet the milestone the date requires, such as screen failures or unassigned subjects.",Exp
6,Special Purpose,DM,RFENDTC,,Subject Reference End Date/Time,RFENDTC,ISO 8601,Record Qualifier,"Reference End Date/time for the subject in ISO 8601 character format. Usually equivalent to the date/time when subject was determined to have ended the trial, and often equivalent to date/time of last exposure to study treatment. Required for all randomized subjects; null for screen failures or unassigned subjects.",Exp
7,Special Purpose,DM,SITEID,,Study Site Identifier,SITEID,,Record Qualifier,Unique identifier for a site within a study.,Req
8,Special Purpose,DM,INVID,,Investigator Identifier,INVID,,Record Qualifier,An identifier to describe the Investigator for the study. May be used in addition to SITEID. Not needed if SITEID is equivalent to INVID.,Perm
9,Special Purpose,DM,INVNAM,,Investigator Name,INVNAM,,Synonym Qualifier,Name of the investigator for a site.,Perm
10,Special Purpose,DM,BRTHDTC,,Date/Time of Birth,BRTHDTC,ISO 8601,Record Qualifier,Date/time of birth of the subject.,Perm
11,Special Purpose,DM,AGE,,Age,AGE,,Record Qualifier,"Age expressed in AGEU. May be derived from RFSTDTC and BRTHDTC, but BRTHDTC may not be available in all cases (due to subject privacy concerns).",Exp
12,Special Purpose,DM,AGEU,,Age Units,AGEU,AGEU,Variable Qualifier,Units associated with AGE.,Exp
13,Special Purpose,DM,SEX,,Sex,SEX,SEX,Record Qualifier,Sex of the subject.,Req
14,Special Purpose,DM,RACE,,Race,RACE,RACE,Record Qualifier,"Race of the subject. Sponsors should refer to 'Collection of Race and Ethnicity Data in Clinical Trials' (FDA, September 2005) for guidance regarding the collection of race (http://www.fda.gov/cder/guidance/5656fnl.htm) See Assumption below regarding RACE.",Exp
15,Special Purpose,DM,ETHNIC,,Ethnicity,ETHNIC,ETHNIC,Record Qualifier,"The ethnicity of the subject. Sponsors should refer to 'Collection of Race and Ethnicity Data in Clinical Trials' (FDA, September 2005) for guidance regarding the collection of ethnicity (http://www.fda.gov/cder/guidance/5656fnl.htm).",Perm
16,Special Purpose,DM,ARMCD,,Planned Arm Code,ARMCD,,Record Qualifier,"1.ARMCD is limited to 20 characters and does not have special character restrictions. The maximum length of ARMCD is longer than for other 'short' variables to accommodate the kind of values that are likely to be needed for crossover trials. For example, if ARMCD values for a seven-period crossover were constructed using two-character abbreviations for each treatment and separating hyphens, the length of ARMCD values would be 20. 2. If the timing of Visits for a trial does not depend on which ARM a subject is in, then ARMCD should be null.",Req
17,Special Purpose,DM,ARM,,Description of Planned Arm,ARM,,Synonym Qualifier,Name given to an Arm or treatment group.,Req
18,Special Purpose,DM,COUNTRY,,Country,COUNTRY,COUNTRY,Record Qualifier,Country of the investigational site in which the subject participated in the trial.,Req
19,Special Purpose,DM,DTC,,Date/Time of Collection,DMDTC,ISO 8601,Timing,Date/time of demographic data collection.,Perm
20,Special Purpose,DM,DY,,Study Day of Collection,DMDY,,Timing,Study day of collection measured as integer days.,Perm
1,Special Purpose,SV,STUDYID,,Study Identifier,STUDYID,,Identifier,Unique identifier for a study.,Req
2,Special Purpose,SV,DOMAIN,,Domain Abbreviation,DOMAIN,,Identifier,Two-character abbreviation for the domain.,Req
3,Special Purpose,SV,USUBJID,,Unique Subject Identifier,USUBJID,,Identifier,Identifier used to uniquely identify a subject across all studies for all applications or submissions involving the product.,Req
4,Special Purpose,SV,VISITNUM,,Visit Number,VISITNUM,,Topic,"Clinical encounter number. Numeric version of VISIT, used for sorting.",Req
5,Special Purpose,SV,VISIT,,Visit Name,VISIT,,Synonym Qualifier,1. Protocol-defined description of clinical encounter. 2. May be used in addition to VISITNUM and/or VISITDY.,Perm
6,Special Purpose,SV,VISITDY,,Planned Study Day of Visit,VISITDY,,Timing,Planned study day of the visit based upon RFSTDTC in Demographics.,Perm
7,Special Purpose,SV,STDTC,,Start Date/Time of Visit,SVSTDTC,ISO 8601,Timing,Start date/time for a Visit.,Exp
8,Special Purpose,SV,ENDTC,,End Date/Time of Visit,SVENDTC,ISO 8601,Timing,End date/time of a Visit.,Exp
9,Special Purpose,SV,STDY,,Study Day of Start of Visit,SVSTDY,,Timing,Study day of start of visit relative to the sponsor-defined RFSTDTC.,Perm
10,Special Purpose,SV,ENDY,,Study Day of End of Visit,SVENDY,,Timing,Study day of end of visit relative to the sponsor-defined RFSTDTC.,Perm
11,Special Purpose,SV,UPDES,,Description of Unplanned Visit,SVUPDES,,Synonym Qualifier,Description of what happened to the subject during an unplanned visit.,Perm
1,Special Purpose,SUPPQUAL,STUDYID,,Study Identifier,STUDYID,,,Unique identifier for a study.,Req
2,Special Purpose,SUPPQUAL,RDOMAIN,,Related Domain Abbreviation,RDOMAIN,DOMAIN,,Two-character abbreviation for the domain of the parent record(s).,Req
3,Special Purpose,SUPPQUAL,USUBJID,,Unique Subject Identifier,USUBJID,,,Identifier used to uniquely identify a subject across all studies for all applications or submissions involving the product.,Req
4,Special Purpose,SUPPQUAL,IDVAR,,Identifying Variable,IDVAR,,,Name of the identifying variable in the general-observation-class dataset that identifies the related record(s). Examples include --SEQ and --GRPID.,Exp
5,Special Purpose,SUPPQUAL,IDVARVAL,,Identifying Variable Value,IDVARVAL,,,"Value of identifying variable described in IDVAR. If --SEQ is the variable being used to describe this record, then the value of --SEQ would be entered here.",Exp
6,Special Purpose,SUPPQUAL,QNAM,,Qualifier Variable Name,QNAM,,,"The short name of the Qualifier variable, which is used as a column name in a domain view with data from the parent domain. The value in QNAM cannot be longer than 8 characters, nor can it start with a number (e.g., '1TEST'). QNAM cannot contain characters other than letters, numbers, or underscores. This will often be the column name in the sponsor's operational dataset.",Req
7,Special Purpose,SUPPQUAL,QLABEL,,Qualifier Variable Label,QLABEL,,,This is the long name or label associated with QNAM. The value in QLABEL cannot be longer than 40 characters. This will often be the column label in the sponsor's original dataset.,Req
8,Special Purpose,SUPPQUAL,QVAL,,Data Value,QVAL,,,"Result of, response to, or value associated with QNAM. A value for this column is required; no records can be in SUPP-- with a null value for QVAL.",Req
9,Special Purpose,SUPPQUAL,QORIG,,Origin,QORIG,,,"Since QVAL can represent a mixture of collected (on a CRF), derived, or assigned items, QORIG is used to indicate the origin of this data. Examples include CRF, ASSIGNED, or DERIVED. See Section 4.1.1.8.",Req
10,Special Purpose,SUPPQUAL,QEVAL,,Evaluator,QEVAL,,,"Used only for results that are subjective (e.g., assigned by a person or a group). Should be null for records that contain objectively collected or derived data. Some examples include ADJUDICATION COMMITTEE, STATISTICIAN, DATABASE ADMINISTRATOR, CLINICAL COORDINATOR, etc.",Exp
1,Trial Design,TA,STUDYID,,Study Identifier,STUDYID,,Identifier,Unique identifier for a study.,Req
2,Trial Design,TA,DOMAIN,,Domain Abbreviation,DOMAIN,,Identifier,Two-character abbreviation for the domain.,Req
3,Trial Design,TA,ARMCD,,Planned Arm Code,ARMCD,,Topic,"1.ARMCD is limited to 20 characters and does not have special character restrictions. The maximum length of ARMCD is longer than for other 'short' variables to accommodate the kind of values that are likely to be needed for crossover trials. For example, if ARMCD values for a seven-period crossover were constructed using two-character abbreviations for each treatment and separating hyphens, the length of ARMCD values would be 20. 2. If the timing of Visits for a trial does not depend on which ARM a subject is in, then ARMCD should be null.",Req
4,Trial Design,TA,ARM,,Description of Planned Arm,ARM,,Synonym Qualifier,Name given to an Arm or treatment group.,Req
5,Trial Design,TA,ETORD,,Order of Element within Arm,TAETORD,,Identifier,Number that gives the order of the Element within the Arm.,Req
6,Trial Design,TA,ETCD,,Element Code,ETCD,,Record Qualifier,"ETCD (the companion to ELEMENT) is limited to 8 characters and does not have special character restrictions. These values should be short for ease of use in programming, but it is not expected that ETCD will need to serve as a variable name.",Req
7,Trial Design,TA,ELEMENT,,Description of Element,ELEMENT,,Synonym Qualifier,The name of the Element. If ETCD has a value of 'UNPLAN' then ELEMENT should be Null.,Perm
8,Trial Design,TA,BRANCH,,Branch,TABRANCH,,Rule,"Condition subject met, at a 'branch' in the trial design at the end of this Element, to be included in this Arm; (e.g., randomization to DRUG X).",Exp
9,Trial Design,TA,TRANS,,Transition Rule,TATRANS,,Rule,"If the trial design allows a subject to transition to an Element other than the next Element in sequence, then the conditions for transitioning to those other Elements, and the alternative Element sequences, are specified in this rule (e.g., Responders go to washout).",Exp
10,Trial Design,TA,EPOCH,,Epoch,EPOCH,,Timing,Epoch associated with the Element in the planned sequence of Elements for the ARM to which the subject was assigned,Req
1,Trial Design,TV,STUDYID,,Study Identifier,STUDYID,,Identifier,Unique identifier for a study.,Req
2,Trial Design,TV,DOMAIN,,Domain Abbreviation,DOMAIN,,Identifier,Two-character abbreviation for the domain.,Req
3,Trial Design,TV,VISITNUM,,Visit Number,VISITNUM,,Topic,"Clinical encounter number. Numeric version of VISIT, used for sorting.",Req
4,Trial Design,TV,VISIT,,Visit Name,VISIT,,Synonym Qualifier,1. Protocol-defined description of clinical encounter. 2. May be used in addition to VISITNUM and/or VISITDY.,Perm
5,Trial Design,TV,VISITDY,,Planned Study Day of Visit,VISITDY,,Timing,Planned study day of the visit based upon RFSTDTC in Demographics.,Perm
6,Trial Design,TV,ARMCD,,Planned Arm Code,ARMCD,,Record Qualifier,"1.ARMCD is limited to 20 characters and does not have special character restrictions. The maximum length of ARMCD is longer than for other 'short' variables to accommodate the kind of values that are likely to be needed for crossover trials. For example, if ARMCD values for a seven-period crossover were constructed using two-character abbreviations for each treatment and separating hyphens, the length of ARMCD values would be 20. 2. If the timing of Visits for a trial does not depend on which ARM a subject is in, then ARMCD should be null.",Exp
7,Trial Design,TV,ARM,,Description of Planned Arm,ARM,,Synonym Qualifier,Name given to an Arm or treatment group.,Perm
8,Trial Design,TV,STRL,,Visit Start Rule,TVSTRL,,Rule,"Rule describing when the Visit starts, in relation to the sequence of Elements.",Req
9,Trial Design,TV,ENRL,,Visit End Rule,TVENRL,,Rule,"Rule describing when the Visit ends, in relation to the sequence of Elements.",Perm
1,Trial Design,TE,STUDYID,,Study Identifier,STUDYID,,Identifier,Unique identifier for a study.,Req
2,Trial Design,TE,DOMAIN,,Domain Abbreviation,DOMAIN,,Identifier,Two-character abbreviation for the domain.,Req
3,Trial Design,TE,ETCD,,Element Code,ETCD,,Topic,"ETCD (the companion to ELEMENT) is limited to 8 characters and does not have special character restrictions. These values should be short for ease of use in programming, but it is not expected that ETCD will need to serve as a variable name.",Req
4,Trial Design,TE,ELEMENT,,Description of Element,ELEMENT,,Synonym Qualifier,The name of the Element. If ETCD has a value of 'UNPLAN' then ELEMENT should be Null.,Req
5,Trial Design,TE,STRL,,Rule for Start of Element,TESTRL,,Rule,Expresses rule for beginning Element.,Req
6,Trial Design,TE,ENRL,,Rule for End of Element,TEENRL,,Rule,Expresses rule for ending Element. Either TEENRL or TEDUR must be present for each Element.,Perm
7,Trial Design,TE,DUR,,Planned Duration of Element,TEDUR,ISO 8601,Timing,Planned Duration of Element in ISO 8601 format. Used when the rule for ending the Element is applied after a fixed duration.,Perm
1,Trial Design,TI,STUDYID,,Study Identifier,STUDYID,,Identifier,Unique identifier for a study.,Req
2,Trial Design,TI,DOMAIN,,Domain Abbreviation,DOMAIN,,Identifier,Two-character abbreviation for the domain.,Req
3,Trial Design,TI,IETESTCD,,Incl/Excl Criterion Short Name,IETESTCD,,Topic,"Short name of the criterion described in IETEST. The value in IETESTCD cannot be longer than 8 characters, nor can it start with a number (e.g.'1TEST'). IETESTCD cannot contain characters other than letters, numbers, or underscores. Examples: IN01, EX01.",Req
4,Trial Design,TI,IETEST,,Inclusion/Exclusion Criterion,IETEST,,Synonym Qualifier,Verbatim description of the inclusion or exclusion criterion that was the exception for the subject within the study. IETEST cannot be longer than 200 characters.,Req
5,Trial Design,TI,IECAT,,Inclusion/Exclusion Category,IECAT,IECAT,Grouping Qualifier,Used to define a category of related records across subjects.,Req
6,Trial Design,TI,IESCAT,,Inclusion/Exclusion Subcategory,IESCAT,,Grouping Qualifier,"A further categorization of the exception criterion. Can be used to distinguish criteria for a sub-study or for to categorize as a major or minor exceptions. Examples: MAJOR, MINOR.",Perm
7,Trial Design,TI,RL,,Inclusion/Exclusion Criterion Rule,TIRL,,Rule,Rule that expresses the criterion in computer-executable form (see assumption 4 below).,Perm
8,Trial Design,TI,VERS,,Protocol Criteria Versions,TIVERS,,Record Qualifier,The number of this version of the Inclusion/Exclusion criteria. May be omitted if there is only one version.,Perm
1,Trial Design,TS,STUDYID,,Study Identifier,STUDYID,,Identifier,Unique identifier for a study.,Req
2,Trial Design,TS,DOMAIN,,Domain Abbreviation,DOMAIN,,Identifier,Two-character abbreviation for the domain.,Req
3,Trial Design,TS,SEQ,,Sequence Number,TSSEQ,,Identifier,"Sequence number given to ensure uniqueness within a dataset. Allows inclusion of multiple records for the same TSPARMCD, and can be used to join related records.",Req
4,Trial Design,TS,GRPID,,Group ID,TSGRPID,,Identifier,Used to tie together a group of related records,Perm
5,Trial Design,TS,PARMCD,,Trial Summary Parameter Short Name,TSPARMCD,TSPARMCD,Topic,"TSPARMCD (the companion to TSPARM) is limited to 8 characters and does not have special character restrictions. These values should be short for ease of use in programming, but it is not expected that TSPARMCD will need to serve as variable names. Examples: AGEMIN, AGEMAX",Req
6,Trial Design,TS,PARM,,Trial Summary Parameter,TSPARM,TSPARM,Synonym Qualifier,"Term for the Trial Summary Parameter. The value in TSPARM cannot be longer than 40 characters. Examples Planned Minimum Age of Subjects, Planned Maximum Age of Subjects",Req
7,Trial Design,TS,VAL,,Parameter Value,TSVAL,,Result Qualifier,Value of TSPARM. Example: 'ASTHMA' when TSPARM value is 'Trial Indication'. TSVAL cannot be null - a value is required for the record to be valid. Text over 200 characters can be added to additional columns TSVAL1-TSVALn.,Req
