{"location":"/home/avinash/home/codebase/python-base/clinical_data_api_iceberg/iceberg_warehouse/clinical/AE","table-uuid":"3a99f114-3aba-4623-8665-3d0f66974335","last-updated-ms":1775682614404,"last-column-id":19,"schemas":[{"type":"struct","fields":[{"id":1,"name":"STUDY","type":"string","required":false,"doc":"Study identifier (human-readable)"},{"id":2,"name":"SITE","type":"string","required":false,"doc":"Site identifier (human-readable)"},{"id":3,"name":"SUBJECT","type":"string","required":false,"doc":"Subject identifier (human-readable)"},{"id":4,"name":"VISIT","type":"string","required":false,"doc":"Visit name"},{"id":5,"name":"FORM","type":"string","required":false,"doc":"Form / CRF page name"},{"id":6,"name":"DOMAIN","type":"string","required":false,"doc":"SDTM domain code"},{"id":7,"name":"AESEQ","type":"long","required":false,"doc":"Sequence number of the adverse event"},{"id":8,"name":"AETERM","type":"string","required":false,"doc":"Reported adverse event term"},{"id":9,"name":"AEDECOD","type":"string","required":false,"doc":"Dictionary-derived term (MedDRA PT)"},{"id":10,"name":"AEBODSYS","type":"string","required":false,"doc":"Body system / SOC"},{"id":11,"name":"AESTDTC","type":"date","required":false,"doc":"Start date of adverse event"},{"id":12,"name":"AEENDTC","type":"date","required":false,"doc":"End date of adverse event"},{"id":13,"name":"AESEV","type":"string","required":false,"doc":"Severity / intensity"},{"id":14,"name":"AEREL","type":"string","required":false,"doc":"Causality (relationship to study drug)"},{"id":15,"name":"AEOUT","type":"string","required":false,"doc":"Outcome of adverse event"},{"id":16,"name":"AE_INCIDENT_GROUP","type":"string","required":false,"doc":"Adverse event incident group"},{"id":17,"name":"SITEID","type":"string","required":false,"doc":"Site ID (partition key)"},{"id":18,"name":"STUDYID","type":"string","required":false,"doc":"Study ID (partition key)"},{"id":19,"name":"USUBJID","type":"string","required":false,"doc":"Unique subject ID (partition key)"}],"schema-id":0,"identifier-field-ids":[]}],"current-schema-id":0,"partition-specs":[{"spec-id":0,"fields":[{"source-id":18,"field-id":1000,"transform":"identity","name":"STUDYID"},{"source-id":17,"field-id":1001,"transform":"identity","name":"SITEID"},{"source-id":19,"field-id":1002,"transform":"identity","name":"USUBJID"},{"source-id":16,"field-id":1003,"transform":"identity","name":"AE_INCIDENT_GROUP"}]}],"default-spec-id":0,"last-partition-id":1003,"properties":{"description":"Adverse Events – records of any undesirable medical occurrences.","domain_code":"AE","write.format.default":"parquet"},"snapshots":[],"snapshot-log":[],"metadata-log":[],"sort-orders":[{"order-id":0,"fields":[]}],"default-sort-order-id":0,"refs":{},"statistics":[],"partition-statistics":[],"format-version":2,"last-sequence-number":0}