{"location":"/home/avinash/home/codebase/python-base/clinical_data_api_iceberg/iceberg_warehouse/clinical/LB","table-uuid":"6c1d9a18-36ec-4df0-ba01-36039090e602","last-updated-ms":1775683645118,"last-column-id":16,"schemas":[{"type":"struct","fields":[{"id":1,"name":"STUDY","type":"string","required":false,"doc":"Study identifier (human-readable)"},{"id":2,"name":"SITE","type":"string","required":false,"doc":"Site identifier (human-readable)"},{"id":3,"name":"SUBJECT","type":"string","required":false,"doc":"Subject identifier (human-readable)"},{"id":4,"name":"VISIT","type":"string","required":false,"doc":"Visit name"},{"id":5,"name":"FORM","type":"string","required":false,"doc":"Form / CRF page name"},{"id":6,"name":"DOMAIN","type":"string","required":false,"doc":"SDTM domain code"},{"id":7,"name":"LBTESTCD","type":"string","required":false,"doc":"Lab test short name"},{"id":8,"name":"LBTEST","type":"string","required":false,"doc":"Lab test long name"},{"id":9,"name":"LBORRES","type":"double","required":false,"doc":"Result or finding in original units"},{"id":10,"name":"LBORRESU","type":"string","required":false,"doc":"Original units"},{"id":11,"name":"LBSTNRLO","type":"double","required":false,"doc":"Reference range lower limit (standard units)"},{"id":12,"name":"LBSTNRHI","type":"double","required":false,"doc":"Reference range upper limit (standard units)"},{"id":13,"name":"LBDTC","type":"date","required":false,"doc":"Date of lab specimen collection"},{"id":14,"name":"SITEID","type":"string","required":false,"doc":"Site ID (partition key)"},{"id":15,"name":"STUDYID","type":"string","required":false,"doc":"Study ID (partition key)"},{"id":16,"name":"USUBJID","type":"string","required":false,"doc":"Unique subject ID (partition key)"}],"schema-id":0,"identifier-field-ids":[]}],"current-schema-id":0,"partition-specs":[{"spec-id":0,"fields":[{"source-id":15,"field-id":1000,"transform":"identity","name":"STUDYID"},{"source-id":14,"field-id":1001,"transform":"identity","name":"SITEID"},{"source-id":16,"field-id":1002,"transform":"identity","name":"USUBJID"}]}],"default-spec-id":0,"last-partition-id":1002,"properties":{"description":"Laboratory Results – clinical lab test values and reference ranges.","domain_code":"LB","write.format.default":"parquet"},"snapshots":[],"snapshot-log":[],"metadata-log":[],"sort-orders":[{"order-id":0,"fields":[]}],"default-sort-order-id":0,"refs":{},"statistics":[],"partition-statistics":[],"format-version":2,"last-sequence-number":0}