{"location":"/home/avinash/home/codebase/python-base/clinical_data_api_iceberg/iceberg_warehouse/clinical/VS","table-uuid":"2e735eb6-f5ab-4b0c-bae1-fc4ce933ca76","last-updated-ms":1775682960321,"last-column-id":14,"schemas":[{"type":"struct","fields":[{"id":1,"name":"STUDY","type":"string","required":false,"doc":"Study identifier (human-readable)"},{"id":2,"name":"SITE","type":"string","required":false,"doc":"Site identifier (human-readable)"},{"id":3,"name":"SUBJECT","type":"string","required":false,"doc":"Subject identifier (human-readable)"},{"id":4,"name":"VISIT","type":"string","required":false,"doc":"Visit name"},{"id":5,"name":"FORM","type":"string","required":false,"doc":"Form / CRF page name"},{"id":6,"name":"DOMAIN","type":"string","required":false,"doc":"SDTM domain code"},{"id":7,"name":"VSTESTCD","type":"string","required":false,"doc":"Vital signs test short name"},{"id":8,"name":"VSTEST","type":"string","required":false,"doc":"Vital signs test long name"},{"id":9,"name":"VSORRES","type":"double","required":false,"doc":"Result or finding in original units"},{"id":10,"name":"VSORRESU","type":"string","required":false,"doc":"Original units"},{"id":11,"name":"VSDTC","type":"date","required":false,"doc":"Date of vital signs measurement"},{"id":12,"name":"SITEID","type":"string","required":false,"doc":"Site ID (partition key)"},{"id":13,"name":"STUDYID","type":"string","required":false,"doc":"Study ID (partition key)"},{"id":14,"name":"USUBJID","type":"string","required":false,"doc":"Unique subject ID (partition key)"}],"schema-id":0,"identifier-field-ids":[]}],"current-schema-id":0,"partition-specs":[{"spec-id":0,"fields":[{"source-id":13,"field-id":1000,"transform":"identity","name":"STUDYID"},{"source-id":12,"field-id":1001,"transform":"identity","name":"SITEID"},{"source-id":14,"field-id":1002,"transform":"identity","name":"USUBJID"}]}],"default-spec-id":0,"last-partition-id":1002,"properties":{"description":"Vital Signs – blood pressure, heart rate, temperature, weight, etc.","domain_code":"VS","write.format.default":"parquet"},"snapshots":[],"snapshot-log":[],"metadata-log":[],"sort-orders":[{"order-id":0,"fields":[]}],"default-sort-order-id":0,"refs":{},"statistics":[],"partition-statistics":[],"format-version":2,"last-sequence-number":0}